
time,gFx,gFy,gFz,ax,ay,az,p,Bx,By,Bz,Azimuth,Pitch,Roll,Gain,
0.017790,0.0106,0.0140,0.9990,0.2546,0.0926,-0.1284,1006.3236,23.1190,12.4562,-41.1140,298.7864,-1.1478,1.6343,-∞,
0.017940,0.0106,0.0140,0.9990,0.2546,0.0926,-0.1284,1006.3236,23.1190,12.4562,-41.1140,298.7864,-1.1478,1.6343,-∞,
0.061592,-0.0027,0.0274,0.9850,0.2339,0.0965,-0.0257,1006.3267,23.1922,11.9926,-41.5898,298.7872,-1.1477,1.6310,-∞,
0.162249,0.0361,0.0360,1.0125,0.1986,0.1390,0.0768,1006.3145,23.5582,11.7364,-41.5654,298.7868,-1.1509,1.6334,-∞,
0.262360,0.0059,0.0199,1.0040,0.3009,0.1813,-0.0558,1006.3419,24.3512,11.9194,-40.9554,298.7852,-1.1554,1.6379,-∞,
0.362834,0.0037,0.0166,0.9910,0.2151,0.1094,0.0608,1006.2961,22.9116,12.1756,-41.2970,298.7839,-1.1624,1.6417,-∞,
0.463079,0.0137,0.0184,1.0119,0.2411,-0.0018,0.0312,1006.3236,23.3630,11.5534,-41.3580,298.7817,-1.1640,1.6439,83.9082,
0.563682,0.0140,0.0131,1.0050,0.2336,0.0809,0.0867,1006.2809,23.4850,11.9926,-41.6752,298.7806,-1.1650,1.6453,83.9082,
0.663850,0.0271,0.0140,0.9844,0.2070,0.0287,0.0152,1006.3541,23.3874,11.9926,-41.8826,298.7813,-1.1663,1.6472,83.9082,
0.764479,0.0203,0.0257,0.9897,0.3519,0.0142,-0.1353,1006.3114,24.0462,11.6388,-41.9436,298.7807,-1.1651,1.6440,88.5110,
0.864733,0.0219,0.0065,1.0001,0.3619,0.0696,-0.1126,1006.3267,23.5704,11.8218,-41.6752,298.7789,-1.1618,1.6370,88.5110,
0.965028,0.0206,0.0077,0.9985,0.3545,0.0688,-0.0550,1006.3480,23.6802,11.9926,-41.5776,298.7790,-1.1573,1.6299,88.5110,
1.065057,0.0094,0.0145,0.9896,0.2527,0.0510,-0.0113,1006.3236,23.5948,12.3708,-40.8944,298.7797,-1.1550,1.6197,92.8957,
1.165834,0.0073,0.0114,1.0008,0.2218,0.0619,0.0541,1006.3450,23.6924,12.3586,-41.4922,298.7780,-1.1514,1.6110,92.8957,
1.265886,-0.0065,0.0123,1.0183,0.2591,0.0652,-0.0574,1006.3267,23.8876,12.2732,-41.3824,298.7757,-1.1475,1.6006,92.8957,
1.366929,0.0093,0.0181,1.0049,0.1915,0.0251,0.0245,1006.3267,23.3752,11.9194,-41.0774,298.7742,-1.1477,1.5912,91.6131,
1.467165,0.0111,0.0134,0.9923,0.1964,0.0492,-0.0160,1006.3480,23.3752,11.9194,-40.9798,298.7717,-1.1441,1.5818,91.6131,
1.567302,0.0135,0.0226,1.0013,0.2311,0.0597,0.0245,1006.3175,23.8876,12.2732,-41.2848,298.7678,-1.1429,1.5686,91.6131,
1.667364,0.0103,0.0164,1.0020,0.2700,0.0508,-0.1434,1006.3572,23.7900,12.1756,-41.3824,298.7670,-1.1413,1.5641,90.5925,
1.767762,0.0223,0.0154,1.0008,0.3109,0.0552,0.0078,1006.3785,23.6070,12.4684,-40.2966,298.7639,-1.1394,1.5533,90.5925,
1.867948,0.0299,0.0150,0.9943,0.3586,0.0562,-0.0409,1006.3511,23.6924,12.1878,-41.2848,298.7624,-1.1356,1.5496,90.5925,
1.968287,0.0218,0.0090,0.9994,0.3451,0.0090,0.0225,1006.3755,23.7656,11.8218,-41.6630,298.7612,-1.1342,1.5387,90.6872,
2.068674,0.0045,0.0128,1.0039,0.2444,0.0273,0.0138,1006.3878,24.1560,11.9194,-40.9554,298.7603,-1.1332,1.5298,90.6872,
2.169096,0.0004,0.0097,0.9939,0.2645,0.0013,-0.1422,1006.3511,22.9116,12.2610,-41.4068,298.7603,-1.1296,1.5281,90.6872,
2.270619,0.0034,0.0212,0.9943,0.2203,0.0380,-0.1175,1006.3511,23.3630,11.7364,-41.4678,298.7589,-1.1249,1.5168,90.9685,
2.372065,0.0119,0.0054,1.0077,0.2060,-0.0027,-0.0066,1006.3725,23.9852,12.3586,-41.5898,298.7581,-1.1220,1.5014,90.9685,
2.472092,0.0069,0.0213,1.0114,0.2330,0.0222,-0.0163,1006.3542,23.3630,11.6388,-41.9680,298.7569,-1.1179,1.4819,90.9685,
2.572658,0.0074,0.0176,1.0172,0.2281,0.0696,-0.0295,1006.3450,23.3874,11.9926,-41.5776,298.7544,-1.1142,1.4582,92.0931,
2.672956,0.0134,0.0177,1.0039,0.3047,0.0513,0.1508,1006.3908,23.1068,12.2610,-41.9070,298.7505,-1.1098,1.4405,92.0931,
2.773185,0.0092,0.0186,0.9916,0.2667,0.0455,-0.1301,1006.3755,23.9608,11.9194,-41.2604,298.7477,-1.1101,1.4244,92.0931,
2.873234,0.0195,0.0159,0.9858,0.2579,-0.0306,-0.1584,1006.3726,23.8876,12.1756,-41.5776,298.7457,-1.1091,1.4150,91.6392,
2.973580,0.0020,0.0096,1.0018,0.2520,0.0036,-0.1079,1006.3451,23.3874,12.0048,-41.2848,298.7456,-1.1022,1.4022,91.6392,
3.074465,0.0074,0.0088,1.0177,0.1874,0.0060,0.1545,1006.3451,23.3264,12.6392,-40.8090,298.7451,-1.0970,1.3900,91.6392,
3.174962,0.0047,0.0161,1.0080,0.1289,-0.0239,0.2064,1006.4031,23.7900,12.1756,-41.3824,298.7444,-1.0911,1.3868,91.0743,
3.275215,0.0088,0.0071,0.9841,0.0901,0.0138,0.0411,1006.3848,23.7900,12.2854,-40.7846,298.7401,-1.0831,1.3735,91.0743,
3.375724,0.0034,0.0271,0.9817,0.2447,0.0236,-0.1965,1006.4122,23.7656,11.8340,-40.7602,298.7363,-1.0771,1.3683,91.0743,
3.476115,0.0184,0.0166,0.9667,0.2685,0.0442,-0.2806,1006.3878,23.0702,11.6510,-41.3702,298.7330,-1.0756,1.3702,91.6873,
3.576427,0.0270,0.0228,0.9945,0.2742,0.0271,-0.0225,1006.3787,23.7778,12.0170,-40.6626,298.7316,-1.0753,1.3595,91.6873,
3.676834,0.0348,0.0161,1.0355,0.2686,0.0269,0.3093,1006.4061,23.6924,12.1878,-41.1872,298.7296,-1.0712,1.3517,91.6873,
3.779529,0.0119,0.0102,1.0219,0.3073,-0.0009,0.2726,1006.3786,23.7656,11.9072,-41.6630,298.7289,-1.0683,1.3555,92.5170,
3.880069,0.0074,0.0058,1.0292,0.2354,-0.0576,0.0013,1006.3817,22.9726,11.6388,-41.7728,298.7290,-1.0670,1.3501,92.5170,
3.980855,0.0174,0.0116,1.0069,0.1991,-0.0572,-0.2126,1006.3817,23.5948,12.1756,-41.6874,298.7279,-1.0594,1.3472,92.5170,
4.081219,0.0136,0.0199,0.9782,0.1529,0.0658,-0.3064,1006.4122,24.1804,12.3464,-41.8826,298.7276,-1.0557,1.3346,91.9542,
4.182566,0.0000,0.0134,0.9932,0.0777,0.0651,-0.1170,1006.3786,23.3630,11.6388,-41.5654,298.7266,-1.0551,1.3235,91.9542,
4.283060,0.0050,0.0156,0.9974,0.0736,-0.0201,0.0501,1006.3878,23.7412,11.4680,-41.6508,298.7247,-1.0489,1.3119,91.9542,
4.383165,-0.0067,0.0101,1.0276,0.0840,0.0060,0.1844,1006.3817,23.8144,12.7246,-40.6992,298.7223,-1.0400,1.2889,90.8643,
4.483895,0.0125,0.0190,1.0121,0.2608,0.0246,0.0142,1006.3939,24.0462,11.6510,-41.4434,298.7178,-1.0350,1.2838,90.8643,
4.584041,0.0122,0.0125,1.0118,0.1928,0.0060,0.1002,1006.3572,23.7900,12.2000,-40.6748,298.7154,-1.0347,1.2770,90.8643,
4.684242,0.0011,0.0133,1.0103,0.1798,0.0804,-0.1974,1006.3755,24.7660,12.2732,-41.2604,298.7138,-1.0377,1.2592,90.4473,
4.784761,0.0129,0.0193,0.9874,0.1494,0.0049,-0.1928,1006.3787,23.2776,11.9194,-40.8822,298.7130,-1.0305,1.2565,90.4473,
4.885113,0.0136,0.0078,1.0043,0.2175,0.0164,0.0659,1006.4000,23.7534,11.5412,-41.9558,298.7111,-1.0274,1.2406,90.4473,
4.985476,0.0179,0.0087,1.0115,0.1818,-0.0388,0.0030,1006.3787,24.4610,12.0902,-41.3580,298.7079,-1.0185,1.2263,90.7510,
5.085599,0.0087,0.0017,1.0035,0.1454,-0.0539,0.0297,1006.3726,23.2898,12.0048,-40.9798,298.7054,-1.0056,1.2057,90.7510,
5.185959,-0.0079,0.0104,0.9960,0.0762,-0.0391,-0.0092,1006.3848,23.6558,11.5534,-41.3580,298.7008,-0.9964,1.1873,90.7510,
5.286461,0.0067,0.0114,1.0117,0.1550,0.0352,0.0017,1006.4000,23.7778,12.1024,-41.0774,298.6985,-0.9922,1.1796,90.4544,
5.386541,0.0101,0.0175,0.9854,0.0093,-0.0399,-0.0973,1006.3329,24.0706,12.0780,-41.7728,298.6950,-0.9882,1.1617,90.4544,
5.487001,-0.0030,0.0038,1.0096,0.0939,-0.0349,0.0304,1006.3787,24.0584,11.9194,-40.9554,298.6924,-0.9823,1.1452,90.4544,
5.587655,-0.0015,0.0137,1.0358,0.0926,-0.0212,0.2992,1006.4000,23.4606,11.6388,-41.7606,298.6891,-0.9778,1.1324,89.4196,
5.687752,0.0182,0.0181,0.9907,0.1677,0.0441,-0.1072,1006.3878,23.6558,11.7364,-41.4678,298.6867,-0.9794,1.1323,89.4196,
5.788185,0.0048,0.0170,0.9818,0.1461,-0.0157,-0.1309,1006.4153,23.3752,11.8340,-40.9676,298.6846,-0.9783,1.1295,89.4196,
5.888221,0.0450,0.0093,0.9401,0.0852,0.0355,0.2525,1006.3726,23.8754,12.0170,-40.9676,298.6868,-0.9806,1.1250,91.7392,
5.988789,0.0129,0.0192,0.9860,0.0681,0.0160,-0.2056,1006.3848,23.2654,11.7364,-41.2726,298.6869,-0.9803,1.1224,91.7392,
6.089284,0.0156,0.0165,1.0067,0.1607,0.0233,0.0125,1006.3726,23.4606,11.6510,-41.0652,298.6877,-0.9732,1.1120,91.7392,
6.189265,0.0124,0.0158,1.0075,0.0869,-0.0358,0.1058,1006.3970,23.1922,12.1024,-40.9920,298.6863,-0.9649,1.0970,90.7862,
6.289232,0.0034,0.0109,1.0280,0.1093,0.0415,0.1301,1006.4398,23.4484,11.3948,-40.7480,298.6848,-0.9574,1.0855,90.7862,
6.389833,0.0192,0.0125,0.9878,0.1911,0.0591,-0.0935,1006.4123,23.7656,11.8462,-40.5650,298.6815,-0.9547,1.0844,90.7862,
6.489971,0.0127,0.0118,0.9925,0.1104,0.0259,-0.0761,1006.3726,23.4728,11.9072,-41.4800,298.6784,-0.9529,1.0724,91.1643,
6.590648,0.0092,0.0103,1.0014,0.1047,-0.0013,-0.3666,1006.3696,22.8994,12.0902,-41.5044,298.6778,-0.9502,1.0631,91.1643,
6.690745,0.0092,0.0091,0.9958,0.1365,0.0474,-0.0906,1006.4092,22.9848,11.7364,-40.9798,298.6743,-0.9469,1.0510,91.1643,
6.790969,0.0042,0.0209,1.0185,0.0667,0.0466,0.1169,1006.3696,24.2658,11.9926,-41.6630,298.6718,-0.9478,1.0377,90.3967,
6.891582,-0.0142,0.0105,1.0349,0.1875,0.0063,0.0047,1006.3940,23.2044,12.1756,-41.4922,298.6698,-0.9481,1.0272,90.3967,
6.991592,-0.0129,0.0093,1.0052,0.1149,-0.0009,-0.0060,1006.4001,23.8510,11.7364,-41.6630,298.6668,-0.9458,1.0110,90.3967,
7.092245,0.0041,0.0183,0.9939,0.1221,0.0050,-0.0475,1006.3726,23.4972,12.3586,-41.2970,298.6643,-0.9436,1.0037,90.7509,
7.192251,0.0091,0.0113,0.9728,0.1153,0.0004,-0.2538,1006.3696,23.7900,12.1756,-41.4800,298.6609,-0.9393,0.9964,90.7509,
7.292539,-0.0001,0.0167,0.9920,0.0708,-0.0109,-0.0887,1006.3452,23.3874,11.9926,-41.5776,298.6584,-0.9324,0.9809,90.7509,
7.392957,0.0073,0.0178,0.9876,0.0978,0.0357,-0.0256,1006.3726,23.5826,12.0902,-41.4800,298.6554,-0.9296,0.9649,90.9912,
7.493172,0.0139,0.0074,1.0148,0.1786,0.0191,-0.0233,1006.3787,23.5704,11.8340,-41.1628,298.6516,-0.9264,0.9589,90.9912,
7.593633,0.0121,0.0190,1.0041,0.1189,0.0546,0.1417,1006.3696,24.5464,11.9316,-40.6382,298.6511,-0.9230,0.9467,90.9912,
7.694033,0.0179,0.0176,1.0055,0.1468,-0.0068,0.1010,1006.3360,23.9486,11.5534,-41.5410,298.6505,-0.9241,0.9390,90.2884,
7.794431,0.0186,0.0172,0.9771,0.1630,-0.0358,-0.0437,1006.3818,23.7656,11.9316,-40.7602,298.6499,-0.9179,0.9308,90.2884,
7.894977,-0.0017,0.0145,0.9913,-0.0221,0.0090,-0.0384,1006.3696,23.4118,12.4562,-40.9066,298.6471,-0.9150,0.9211,90.2884,
7.995244,0.0043,0.0154,0.9889,0.0137,-0.0404,0.0580,1006.3391,23.7656,11.8218,-41.5654,298.6442,-0.9105,0.9179,91.4317,
8.095597,0.0077,0.0099,0.9878,0.0774,0.0472,-0.1219,1006.3940,23.1800,11.8218,-41.3824,298.6398,-0.9126,0.9069,91.4317,
8.195867,0.0174,0.0164,0.9884,0.0904,0.0170,0.0231,1006.2841,23.0824,11.9194,-41.1872,298.6370,-0.9087,0.8927,91.4317,
8.296229,0.0008,0.0100,1.0407,0.0460,-0.0387,0.3106,1006.3085,23.7046,12.4440,-41.3946,298.6342,-0.9071,0.8798,91.7762,
8.397071,0.0240,0.0140,1.0115,0.1630,0.0478,-0.0669,1006.3391,23.1800,11.8340,-40.7724,298.6328,-0.9063,0.8818,91.7762,
8.496843,0.0280,0.0231,1.0029,0.2067,-0.0355,0.1129,1006.3635,23.5704,11.8218,-41.5654,298.6324,-0.9076,0.8814,91.7762,
8.597681,0.0166,0.0149,0.9809,0.1769,0.0317,-0.0842,1006.3360,23.6924,12.3586,-41.0896,298.6333,-0.9083,0.8784,91.4250,
8.697671,0.0268,0.0219,0.9945,0.0989,0.0730,-0.1237,1006.3697,23.7778,12.0170,-40.7724,298.6374,-0.9089,0.8769,91.4250,
8.797988,0.0042,0.0253,0.9837,0.0927,0.0013,-0.0974,1006.3422,23.9608,11.8340,-41.0530,298.6413,-0.9112,0.8734,91.4250,
8.898342,0.0116,0.0196,0.9948,0.1192,0.0618,-0.1568,1006.3788,23.8876,12.3586,-41.1872,298.6475,-0.9119,0.8684,92.2690,
8.998941,0.0148,0.0168,0.9859,0.1207,0.0371,-0.2157,1006.3605,23.7656,11.8096,-41.8704,298.6544,-0.9064,0.8605,92.2690,
9.099260,0.0021,-0.0005,1.0137,0.1291,-0.0215,-0.1385,1006.3087,23.5094,12.4440,-41.2970,298.6613,-0.9049,0.8506,92.2690,
9.199642,-0.0066,0.0156,1.0139,0.1258,0.0159,-0.2290,1006.3453,23.5582,11.6388,-41.9680,298.6713,-0.9050,0.8498,91.7545,
9.300083,0.0134,0.0098,1.0161,0.0455,-0.0482,0.1378,1006.3727,23.7900,12.2610,-41.5898,298.6808,-0.9016,0.8424,91.7545,
9.400314,0.0102,0.0037,1.0038,0.0276,-0.0568,0.0877,1006.3514,23.3874,12.0170,-40.4796,298.6892,-0.8978,0.8343,91.7545,
9.500479,0.0109,0.0104,0.9933,0.1057,0.0483,0.0233,1006.3544,23.7656,11.9072,-41.6630,298.6978,-0.8988,0.8363,91.5212,
9.600807,0.0186,0.0160,0.9710,0.0765,-0.0149,-0.0490,1006.3666,23.4850,12.0780,-41.7850,298.7068,-0.8995,0.8366,91.5212,
9.701092,0.0157,0.0102,1.0012,0.0656,-0.0824,-0.0218,1006.3208,23.1068,12.2488,-42.1022,298.7154,-0.8982,0.8302,91.5212,
9.801631,0.0055,0.0165,0.9730,0.0555,0.0207,-0.0599,1006.3483,23.7778,11.9926,-41.6752,298.7222,-0.8957,0.8228,90.5545,
9.901936,-0.0015,0.0183,1.0288,0.1373,0.0785,-0.1586,1006.3727,23.2898,12.0780,-42.1876,298.7289,-0.8943,0.8037,90.5545,
10.002624,0.0228,0.0118,1.0011,0.0128,0.0242,0.1078,1006.3452,24.1682,12.0902,-41.2604,298.7351,-0.8955,0.7923,90.5545,
10.102995,-0.0091,0.0104,1.0219,0.0373,-0.0322,0.2835,1006.3666,24.1804,12.2610,-41.7728,298.7395,-0.8940,0.7791,91.6907,
10.203119,0.0180,0.0276,0.9946,0.0478,-0.0500,-0.0508,1006.3544,23.7900,12.2732,-41.2848,298.7435,-0.8951,0.7838,91.6907,
10.303629,-0.0008,0.0143,0.9959,-0.0410,-0.0106,-0.0335,1006.3452,24.5342,11.7486,-40.8334,298.7462,-0.8962,0.7705,91.6907,
10.403921,0.0210,0.0163,0.9868,-0.0951,0.0194,-0.1118,1006.3422,23.4606,11.5656,-40.8578,298.7488,-0.8981,0.7631,91.5339,
10.504224,0.0077,0.0135,0.9885,0.0713,0.0309,-0.1296,1006.3544,23.3630,11.6388,-41.5654,298.7524,-0.9016,0.7547,91.5339,
10.604638,-0.0004,0.0193,0.9979,-0.1496,-0.0149,0.0879,1006.3452,23.6802,12.0048,-41.3702,298.7512,-0.9011,0.7347,91.5339,
10.705045,0.0140,0.0087,1.0048,-0.0258,0.0065,0.1376,1006.3422,23.9730,12.1024,-41.0652,298.7516,-0.9040,0.7411,90.8929,
10.805402,0.0183,0.0214,0.9888,-0.0688,-0.0385,0.1489,1006.3452,23.4850,12.0780,-41.7850,298.7500,-0.9032,0.7432,90.8929,
10.905819,-0.0008,0.0097,0.9900,-0.0662,-0.0327,0.0880,1006.3727,23.4972,12.1878,-41.1872,298.7508,-0.9030,0.7422,90.8929,
11.006281,0.0013,0.0110,0.9914,0.0247,-0.0509,-0.0143,1006.3696,23.2654,11.7242,-41.8704,298.7505,-0.9022,0.7464,91.3645,
11.106657,0.0141,0.0171,0.9968,0.0897,0.0352,-0.2208,1006.3757,23.8754,12.0902,-41.1750,298.7495,-0.9053,0.7564,91.3645,
11.207237,0.0108,0.0120,0.9916,0.0542,0.0191,0.0289,1006.3544,23.4850,12.0048,-41.3824,298.7497,-0.9000,0.7533,91.3645,
11.307755,0.0317,0.0123,1.0132,0.1414,0.0115,0.1631,1006.3727,24.1560,11.8218,-41.8582,298.7517,-0.8950,0.7553,92.2458,
11.407627,0.0111,0.0087,1.0014,0.0405,-0.0215,0.0475,1006.3391,23.6558,11.5534,-41.6508,298.7533,-0.8995,0.7515,92.2458,
11.508423,-0.0041,0.0104,0.9947,0.0766,0.0131,-0.0618,1006.3666,23.8876,12.1878,-41.0774,298.7568,-0.9012,0.7503,92.2458,
11.608330,0.0095,0.0111,1.0050,-0.0563,-0.0106,0.0763,1006.3483,23.5948,12.1878,-41.1872,298.7584,-0.9008,0.7414,91.4750,
11.708756,0.0066,0.0083,1.0006,0.0652,-0.0070,-0.0753,1006.3361,22.5822,11.6510,-41.2848,298.7621,-0.9071,0.7444,91.4750,
11.809313,0.0056,0.0154,1.0033,0.0159,0.0758,-0.2490,1006.3177,24.2414,11.6510,-41.0408,298.7651,-0.9130,0.7356,90.4999,
11.909999,-0.0014,0.0159,0.9832,-0.0496,0.0427,-0.2500,1006.3422,23.1800,11.7364,-41.1750,298.7687,-0.9191,0.7293,90.4999,
12.010288,0.0094,0.0108,0.9797,0.0162,0.0131,-0.2180,1006.3452,23.4118,12.4318,-42.0046,298.7699,-0.9200,0.7283,90.4999,
12.110245,0.0028,0.0056,1.0054,0.0309,-0.0276,-0.0310,1006.3452,23.4606,11.6388,-41.9680,298.7719,-0.9232,0.7298,90.5804,
12.210586,0.0204,0.0207,0.9910,-0.1012,-0.0390,0.2010,1006.3147,22.9726,11.5534,-41.5776,298.7724,-0.9262,0.7306,90.5804,
12.311316,0.0043,0.0102,1.0299,0.0938,-0.0115,0.0869,1006.3879,23.2898,12.0048,-40.9798,298.7759,-0.9262,0.7303,90.5804,
12.411710,0.0132,0.0202,1.0172,-0.0725,-0.1074,0.4166,1006.2933,23.4972,12.3586,-41.6020,298.7767,-0.9245,0.7227,90.6433,
12.511751,0.0135,0.0226,1.0042,0.0757,0.0194,0.0136,1006.3483,23.4972,12.2488,-42.3950,298.7782,-0.9319,0.7344,90.6433,
12.611683,-0.0086,0.0231,0.9979,0.1646,0.0374,-0.3472,1006.4062,23.2654,11.5656,-41.0652,298.7767,-0.9382,0.7406,90.6433,
12.711814,0.0173,0.0117,0.9713,0.1156,-0.0069,-0.2820,1006.3605,23.1800,11.8218,-41.1750,298.7770,-0.9425,0.7446,91.2763,
12.812141,0.0192,0.0220,1.0244,0.1039,-0.0024,0.1300,1006.3818,23.8632,11.9194,-41.0652,298.7772,-0.9483,0.7330,91.2763,
12.912871,0.0192,0.0165,0.9958,-0.0189,-0.0279,0.0094,1006.3452,23.0702,11.5534,-41.3702,298.7753,-0.9542,0.7318,91.2763,
13.013676,0.0001,0.0193,1.0079,0.1089,0.0511,0.1356,1006.3788,23.4606,11.7364,-41.0652,298.7714,-0.9601,0.7348,89.8201,
13.113982,0.0289,0.0203,0.9805,-0.0286,-0.0039,0.0534,1006.3727,23.8632,11.8950,-42.4682,298.7690,-0.9645,0.7410,89.8201,
13.214358,-0.0063,0.0106,0.9833,-0.0239,0.0060,-0.1088,1006.3818,23.4972,12.2610,-41.4922,298.7647,-0.9686,0.7410,89.8201,
13.314662,0.0110,0.0174,0.9975,-0.0284,-0.0408,-0.1164,1006.3757,24.2658,12.0170,-40.7602,298.7635,-0.9721,0.7420,91.7159,
13.415188,0.0078,0.0139,1.0072,0.0354,-0.0358,-0.1183,1006.3971,23.6680,11.8340,-41.1628,298.7612,-0.9735,0.7465,91.7159,
13.515739,0.0154,0.0186,1.0251,0.1370,-0.0478,0.1456,1006.3513,22.8628,11.3582,-42.1632,298.7585,-0.9705,0.7411,91.7159,
13.615619,0.0143,0.0202,1.0211,0.1029,-0.0524,0.2858,1006.3757,23.4728,11.8218,-41.2726,298.7543,-0.9728,0.7366,91.1197,
13.716199,0.0173,0.0245,1.0045,0.1667,-0.0151,-0.0102,1006.3728,23.0946,12.0048,-41.3946,298.7523,-0.9756,0.7352,91.1197,
13.816383,0.0055,0.0116,1.0192,0.0566,-0.0410,-0.0404,1006.3850,23.2898,12.0902,-41.2848,298.7480,-0.9777,0.7225,91.1197,
13.918020,0.0081,0.0126,0.9949,-0.0128,-0.0419,-0.0872,1006.3789,23.0824,11.8218,-41.2848,298.7444,-0.9828,0.7183,90.2737,
14.016887,0.0237,0.0092,0.9857,0.0798,0.0277,-0.2207,1006.4125,23.5948,12.1878,-41.0896,298.7398,-0.9854,0.7166,90.2737,
14.117232,0.0148,0.0122,0.9979,0.0915,-0.0166,-0.0255,1006.4094,23.7412,11.4558,-41.8460,298.7343,-0.9886,0.7095,90.2737,
14.217497,0.0120,0.0131,1.0056,-0.0234,-0.0576,0.0212,1006.4186,23.0092,12.1634,-42.0046,298.7299,-0.9940,0.7075,89.8541,
14.317779,0.0211,0.0078,0.9723,-0.0149,0.0167,-0.1082,1006.4308,23.9486,11.6510,-41.2482,298.7256,-0.9931,0.7124,89.8541,
14.418369,-0.0067,0.0173,1.0122,-0.1162,0.0150,-0.0606,1006.3972,23.7900,12.2854,-40.7846,298.7195,-0.9943,0.7115,89.8541,
14.518618,0.0160,0.0223,0.9873,0.0693,0.0370,-0.1002,1006.3911,23.3996,12.3464,-41.6996,298.7156,-0.9992,0.7174,90.1675,
14.618823,0.0225,0.0216,0.9855,-0.1013,0.0146,0.1651,1006.3851,23.5460,11.4680,-41.4556,298.7085,-1.0031,0.7199,90.1675,
14.719254,0.0100,0.0251,1.0273,0.0667,-0.0382,0.2104,1006.4186,23.3630,11.5534,-41.4556,298.7031,-1.0048,0.7191,90.1675,
14.819502,0.0086,0.0101,1.0128,0.0102,-0.0508,0.1256,1006.3942,23.2044,12.1756,-41.6020,298.6966,-1.0073,0.7213,90.6328,
14.920016,0.0264,0.0215,0.9762,-0.0197,0.0191,-0.1641,1006.4247,23.6070,12.4440,-41.6996,298.6920,-1.0125,0.7221,90.6328,
15.020390,0.0131,0.0192,0.9916,0.1688,0.0283,-0.2836,1006.3820,23.0824,11.9072,-41.5898,298.6866,-1.0198,0.7193,90.6328,
15.120707,0.0260,0.0205,0.9922,0.0565,0.0260,0.0399,1006.3607,23.2410,11.2850,-41.5532,298.6809,-1.0254,0.7022,90.7955,
15.221352,0.0288,0.0148,1.0031,0.0125,0.0166,0.1309,1006.3301,23.6924,12.2854,-40.5894,298.6766,-1.0341,0.6875,90.7955,
15.321256,0.0077,0.0150,1.0240,0.2097,0.0369,0.0454,1006.4003,23.0702,11.6266,-42.1754,298.6734,-1.0428,0.6743,90.7955,
15.421931,0.0105,0.0083,1.0049,-0.0162,-0.0202,0.1275,1006.4217,23.7778,12.1024,-40.7724,298.6702,-1.0481,0.6543,89.1147,
15.522449,0.0136,0.0180,0.9946,-0.0094,0.0290,-0.1197,1006.3973,23.7656,11.8340,-40.8578,298.6660,-1.0568,0.6430,89.1147,
15.622359,0.0085,0.0190,0.9731,-0.0039,0.0080,-0.3406,1006.3911,23.7656,11.9072,-41.8704,298.6626,-1.0665,0.6358,89.1147,
15.723043,0.0136,0.0167,0.9437,-0.1259,-0.0437,-0.1754,1006.3911,23.2044,12.1756,-41.7972,298.6611,-1.0743,0.6272,90.2723,
15.823033,-0.0057,0.0151,0.9977,-0.1325,0.0120,0.0047,1006.3545,23.7534,11.7242,-41.7606,298.6602,-1.0766,0.5976,90.2723,
15.923469,-0.0082,0.0150,1.0554,-0.2460,-0.0610,0.6205,1006.3698,23.9486,11.5656,-41.2482,298.6577,-1.0774,0.5801,90.2723,
16.023731,0.0069,0.0115,1.0319,0.0393,-0.0515,0.2308,1006.4064,23.5704,11.9072,-41.4678,298.6555,-1.0857,0.5985,90.8491,
16.124220,-0.0032,0.0132,1.0223,0.1906,0.0210,-0.1150,1006.3820,22.9726,11.6632,-40.5772,298.6516,-1.0925,0.5931,90.8491,
16.225020,0.0208,0.0133,0.9876,0.0376,-0.0166,-0.1922,1006.3698,23.5826,12.0048,-41.3824,298.6497,-1.1024,0.5891,90.8491,
16.325330,-0.0173,0.0262,1.0029,-0.1652,0.0040,0.0615,1006.3972,23.5582,11.6388,-41.6630,298.6490,-1.1078,0.5693,90.2964,
16.426703,0.0213,0.0263,0.9994,-0.1978,-0.0484,0.2817,1006.3942,23.3630,11.5778,-40.6626,298.6463,-1.1131,0.5585,90.2964,
16.527739,0.0092,0.0083,1.0376,0.0431,-0.0778,0.1241,1006.3972,24.3512,11.8218,-41.4434,298.6425,-1.1182,0.5590,90.2964,
16.627437,-0.0007,0.0149,1.0115,0.1140,0.0017,0.0526,1006.3851,23.4606,11.7242,-41.8704,298.6376,-1.1235,0.5595,90.2324,
16.727826,-0.0033,0.0218,0.9997,0.1484,0.0149,-0.2008,1006.3973,23.9364,11.4680,-41.7484,298.6360,-1.1337,0.5639,90.2324,
16.828010,0.0026,0.0242,0.9715,-0.2346,0.0076,-0.1488,1006.4034,24.1560,11.9316,-40.7602,298.6320,-1.1401,0.5459,90.2324,
16.928339,-0.0070,0.0222,0.9941,0.0219,-0.0709,-0.1602,1006.4217,23.9730,12.0170,-40.8700,298.6262,-1.1467,0.5591,89.3942,
17.028681,-0.0070,0.0102,1.0317,0.0698,-0.0403,-0.2658,1006.3668,23.0946,12.0048,-41.3946,298.6192,-1.1515,0.5681,89.3942,
17.129812,0.0139,0.0231,0.9835,-0.0726,-0.0814,0.3075,1006.3851,24.2292,11.3826,-41.2238,298.6173,-1.1558,0.5841,89.3942,
17.230233,0.0002,0.0236,0.9984,-0.0710,-0.0203,0.0331,1006.3881,23.8388,11.4680,-41.4434,298.6121,-1.1624,0.5863,90.4372,
17.331159,0.0036,0.0220,0.9925,0.0431,-0.0169,-0.1189,1006.3881,23.9486,11.7364,-41.2482,298.6062,-1.1616,0.6000,90.4372,
17.431497,0.0173,0.0179,1.0411,0.2021,-0.0779,-0.0758,1006.4003,23.6680,11.8340,-41.0652,298.6014,-1.1613,0.6097,90.4372,
17.531825,0.0139,0.0105,1.0253,0.2061,-0.0125,-0.1313,1006.4186,23.5582,11.5534,-41.4556,298.5964,-1.1676,0.6269,90.3900,
17.632375,0.0053,0.0145,0.9917,0.0180,-0.0475,-0.0039,1006.4095,24.1926,12.5416,-41.3824,298.5925,-1.1749,0.6221,90.3900,
17.733275,0.0157,0.0247,1.0116,-0.0461,-0.0046,-0.1163,1006.3912,23.3630,11.7242,-41.6752,298.5880,-1.1770,0.6152,90.3900,
17.834242,0.0070,0.0195,0.9880,-0.0911,-0.0261,-0.0689,1006.3820,23.8632,11.8218,-41.2604,298.5843,-1.1811,0.6126,90.5954,
17.934626,-0.0104,0.0091,1.0113,0.1008,0.0412,-0.3781,1006.4217,23.5460,11.3704,-41.7484,298.5797,-1.1833,0.6034,90.5954,
18.035330,0.0108,0.0134,0.9673,0.0553,-0.0338,-0.2170,1006.4217,23.6558,11.6388,-41.6630,298.5754,-1.1872,0.5926,90.5954,
18.135403,-0.0001,0.0123,1.0143,-0.0222,-0.0175,-0.0904,1006.3942,23.3508,11.4558,-41.7606,298.5711,-1.1867,0.5723,91.4356,
18.235597,0.0028,0.0301,1.0103,-0.1519,0.0182,0.0605,1006.3820,24.3512,11.8218,-41.3458,298.5658,-1.1867,0.5637,91.4356,
18.335905,-0.0063,0.0161,1.0178,-0.0953,-0.0211,0.0282,1006.4156,23.6558,11.6510,-41.1506,298.5594,-1.1881,0.5577,91.4356,
18.436251,-0.0305,0.0130,1.0234,-0.2488,-0.0571,0.0238,1006.4095,23.9486,11.5534,-41.8460,298.5533,-1.1930,0.5606,90.9864,
18.536756,0.0185,0.0104,0.9721,-0.0968,-0.1072,0.1254,1006.3942,23.5338,11.2972,-41.2482,298.5460,-1.2008,0.5688,90.9864,
18.637455,0.0092,0.0193,0.9832,0.0106,-0.0321,-0.0234,1006.3882,23.5582,11.6388,-41.6630,298.5381,-1.2087,0.5775,90.9864,
18.738651,0.0117,0.0203,1.0170,0.0522,-0.0867,0.2081,1006.4310,23.2532,11.3826,-41.1506,298.5333,-1.2108,0.5815,90.6592,
18.838664,0.0314,0.0236,0.9889,0.2274,0.0060,-0.0782,1006.3760,24.2292,11.4802,-41.1384,298.5302,-1.2217,0.5882,90.6592,
18.938967,0.0288,0.0214,0.9978,0.0773,-0.1078,0.2162,1006.3760,23.9608,11.8340,-40.9554,298.5249,-1.2245,0.5820,90.6592,
19.039362,0.0135,0.0143,1.0192,0.1867,-0.0849,-0.0615,1006.4493,23.6558,11.6632,-40.8578,298.5194,-1.2223,0.5962,89.8794,
19.140155,0.0051,0.0254,0.9995,-0.1340,-0.0775,0.1057,1006.4371,23.8632,11.9072,-41.4678,298.5163,-1.2273,0.6111,89.8794,
19.240418,0.0068,0.0223,0.9513,-0.0084,0.0305,-0.4808,1006.4005,23.8388,11.4680,-41.2482,298.5111,-1.2371,0.6321,89.8794,
19.340885,0.0080,0.0039,0.9637,-0.0208,-0.0187,-0.2654,1006.4371,23.8510,11.6510,-41.2482,298.5068,-1.2440,0.6306,90.1515,
19.441350,0.0181,0.0265,1.0070,0.0702,-0.0462,0.0379,1006.4188,23.3630,11.5534,-41.6630,298.5033,-1.2385,0.6238,90.1515,
19.541838,0.0119,0.0091,1.0347,-0.1363,-0.0673,0.3094,1006.4005,23.3508,11.4680,-41.4556,298.4949,-1.2359,0.6129,90.1515,
19.642295,0.0187,0.0210,1.0178,0.1247,-0.0033,0.2131,1006.4188,23.7778,12.0902,-41.6752,298.4876,-1.2498,0.6187,90.8025,
19.742403,0.0053,0.0105,1.0268,0.1509,-0.0748,0.1511,1006.4249,22.9726,11.5656,-41.0652,298.4822,-1.2575,0.6180,90.8025,
19.842401,0.0287,0.0180,1.0110,0.1485,-0.0692,0.0383,1006.3913,23.9486,11.7364,-41.6508,298.4758,-1.2564,0.5920,90.8025,
19.942717,0.0210,0.0178,0.9882,0.0914,-0.0201,-0.3243,1006.4767,22.9604,11.4802,-40.8700,298.4721,-1.2656,0.5838,90.2466,
20.043263,0.0042,0.0252,0.9550,0.0307,0.0343,-0.3059,1006.4218,23.4484,11.3704,-41.8582,298.4674,-1.2817,0.5844,90.2466,
20.143234,0.0229,0.0177,0.9680,-0.0290,-0.0374,0.0729,1006.4340,23.4606,11.5534,-41.3580,298.4649,-1.2880,0.5874,90.2466,
20.244003,-0.0064,0.0213,1.0593,0.2168,0.0499,-0.0336,1006.4310,23.2532,11.4680,-41.4556,298.4654,-1.2839,0.5904,89.4936,
20.344976,0.0232,0.0212,1.0246,0.2689,-0.0527,0.0861,1006.4310,23.4362,11.2118,-40.6382,298.4675,-1.2935,0.6266,89.4936,
20.445079,0.0156,0.0210,0.9584,0.1350,-0.0558,-0.2663,1006.4249,24.0462,11.6510,-41.2482,298.4756,-1.3185,0.6578,89.4936,
20.545835,0.0123,0.0107,1.0069,0.0277,-0.1342,0.0575,1006.4492,24.1316,11.3826,-41.3336,298.4875,-1.3261,0.6715,88.9238,
20.645666,0.0157,0.0103,1.0322,0.1867,-0.0674,0.3095,1006.3851,23.0824,11.8340,-41.0774,298.4969,-1.3314,0.6876,88.9238,
20.746238,0.0460,0.0147,1.0125,0.3578,-0.0102,0.0593,1006.4400,24.1316,11.4802,-40.8334,298.5076,-1.3464,0.7171,88.9238,
20.846471,0.0316,0.0230,0.9612,0.0721,0.0110,-0.3056,1006.4095,23.8632,11.8218,-41.3580,298.5289,-1.3608,0.7126,89.7282,
20.947074,0.0120,0.0094,0.9624,-0.0752,-0.0741,-0.3739,1006.4125,23.6314,11.2850,-41.4434,298.5538,-1.3666,0.6908,89.7282,
21.047145,0.0086,0.0207,0.9830,-0.0237,-0.0531,0.0720,1006.4339,24.0584,11.9072,-41.6630,298.5729,-1.3643,0.6787,89.7282,
21.146851,0.0144,0.0229,1.0074,-0.0090,-0.0274,-0.0298,1006.4003,23.2532,11.4558,-41.7606,298.5909,-1.3644,0.6797,90.5363,
21.247724,0.0038,0.0154,1.0073,-0.0018,-0.0882,0.0918,1006.4278,23.4606,11.6510,-40.9554,298.6115,-1.3650,0.6842,90.5363,
21.347928,0.0127,0.0129,0.9898,0.0052,-0.0779,-0.0771,1006.4461,23.8510,11.6388,-41.8582,298.6364,-1.3595,0.6741,90.5363,
21.447861,-0.0102,0.0256,0.9994,-0.0632,0.0197,-0.1501,1006.4156,23.9486,11.5656,-41.0408,298.6606,-1.3574,0.6598,90.7409,
21.548123,0.0032,0.0270,0.9811,-0.1429,0.0114,-0.0467,1006.4493,24.4122,11.2850,-41.9192,298.6778,-1.3571,0.6658,90.7409,
21.648480,0.0056,0.0269,0.9899,0.0105,0.0752,-0.2386,1006.4096,23.5704,11.8950,-42.0778,298.6946,-1.3632,0.6949,90.7409,
21.748799,0.0010,0.0252,1.0171,-0.0215,-0.0486,0.0042,1006.4554,23.4484,11.4680,-41.5532,298.7155,-1.3633,0.7009,90.9043,
21.850486,0.0069,0.0140,1.0006,0.1020,-0.0575,0.1204,1006.4066,23.5582,11.6266,-42.0656,298.7405,-1.3671,0.7014,90.9043,
21.950602,-0.0100,0.0106,1.0090,-0.0206,-0.0712,0.0563,1006.4127,23.9608,11.8218,-41.6630,298.7635,-1.3735,0.6971,90.9043,
22.050973,0.0188,0.0207,0.9950,0.1836,-0.0577,-0.1191,1006.4188,23.3752,11.8218,-41.2726,298.7832,-1.3733,0.7114,90.0480,
22.151389,0.0395,0.0199,1.0089,0.2153,-0.0213,0.0189,1006.4066,24.1682,12.0902,-41.7728,298.8061,-1.3701,0.7248,90.0480,
22.251748,0.0275,0.0278,0.9807,0.1863,-0.0088,-0.0300,1006.4188,23.8510,11.7242,-41.7606,298.8293,-1.3742,0.7382,90.0480,
22.351917,0.0193,0.0297,0.9674,0.1443,-0.0388,-0.4018,1006.4005,23.9486,11.7364,-41.5532,298.8525,-1.3800,0.7296,89.5736,
22.453035,0.0107,0.0147,1.0084,-0.0432,-0.1661,0.1720,1006.4249,24.1438,11.7364,-41.6508,298.8732,-1.3771,0.7018,89.5736,
22.553367,0.0035,0.0086,1.0062,-0.1323,-0.1265,0.1890,1006.3914,23.2532,11.4680,-41.6630,298.8899,-1.3772,0.6972,89.5736,
22.653414,0.0263,0.0123,1.0444,0.0562,-0.0549,0.2947,1006.4066,23.8632,11.8218,-41.4556,298.9030,-1.3822,0.7018,89.6857,
22.753715,0.0141,0.0180,0.9953,-0.0005,-0.0358,0.0514,1006.4463,23.4606,11.7242,-41.7728,298.9182,-1.3947,0.7178,89.6857,
22.853991,0.0174,0.0189,1.0002,0.0397,-0.0579,-0.0358,1006.4615,23.7290,11.1874,-41.9314,298.9316,-1.4005,0.7040,89.6857,
22.954253,0.0163,0.0135,0.9649,0.0592,-0.1038,-0.2501,1006.4219,22.9848,11.7364,-41.0774,298.9442,-1.4042,0.6778,89.8310,
23.054564,-0.0101,0.0168,1.0244,-0.0270,0.0317,-0.3380,1006.4402,23.9486,11.5656,-41.2482,298.9503,-1.4120,0.6576,89.8310,
23.155092,0.0065,0.0190,0.9751,-0.2605,-0.1039,0.0134,1006.4280,23.7412,11.3948,-40.5406,298.9529,-1.4148,0.6569,89.8310,
23.255321,0.0106,0.0156,1.0016,0.1111,-0.0674,0.0420,1006.4005,23.3630,11.6388,-41.8704,298.9592,-1.4124,0.6579,89.0395,
23.355726,0.0065,0.0175,0.9922,-0.0421,-0.0762,-0.0416,1006.4341,23.8632,11.8218,-41.3580,298.9637,-1.4099,0.6403,89.0395,
23.456274,0.0082,0.0180,1.0076,-0.0262,0.0127,-0.1308,1006.4097,23.6680,11.9072,-41.6752,298.9646,-1.4074,0.6217,89.0395,
23.556447,0.0111,0.0206,0.9906,0.0125,-0.0220,-0.3049,1006.4310,23.4972,12.1756,-41.5898,298.9626,-1.4077,0.6193,90.4237,
23.656910,0.0227,0.0310,1.0035,0.0714,0.0129,-0.0809,1006.4799,23.5460,11.4680,-41.2482,298.9594,-1.4041,0.6193,90.4237,
23.757064,0.0016,0.0097,1.0090,-0.1866,-0.0349,0.0280,1006.3853,23.7412,11.3704,-41.6386,298.9559,-1.3988,0.6108,90.4237,
23.857769,-0.0061,0.0253,0.9860,-0.1562,-0.0435,0.2216,1006.4036,23.4362,11.2850,-41.6508,298.9523,-1.4020,0.5964,91.3199,
23.958396,-0.0113,0.0249,1.0213,-0.2827,-0.0250,0.1073,1006.4036,23.9364,11.4680,-41.2360,298.9466,-1.4035,0.5789,91.3199,
24.058444,-0.0009,0.0240,0.9756,-0.1373,0.0022,-0.1635,1006.3792,22.9848,11.7486,-40.8822,298.9418,-1.4070,0.5903,91.3199,
24.158679,-0.0015,0.0156,1.0250,-0.0205,-0.0269,-0.2066,1006.3853,23.7534,11.6388,-41.6508,298.9319,-1.4140,0.5906,90.9399,
24.259732,-0.0023,0.0170,1.0026,0.0740,0.0294,-0.0219,1006.4493,23.7778,12.0048,-41.3702,298.9243,-1.4125,0.5955,90.9399,
24.360075,0.0152,0.0289,1.0119,0.0959,0.0486,0.1342,1006.3792,23.5216,11.0288,-41.0286,298.9190,-1.4102,0.5885,90.9399,
24.460887,0.0042,0.0263,0.9982,0.1358,0.0009,-0.0162,1006.4097,23.8388,11.3948,-40.8334,298.9151,-1.4056,0.5779,90.6590,
24.561114,-0.0026,0.0199,1.0332,0.0999,-0.0519,-0.0563,1006.3821,23.2532,11.3826,-41.2604,298.9076,-1.4000,0.5658,90.6590,
24.661675,0.0060,0.0200,1.0015,0.0574,-0.0236,-0.2222,1006.4096,23.4728,11.8218,-41.4678,298.8978,-1.3936,0.5736,90.6590,
24.761898,0.0197,0.0220,1.0014,0.1191,-0.0291,-0.1191,1006.4005,24.2292,11.4680,-41.7362,298.8882,-1.3875,0.5763,90.6337,
24.862340,0.0153,0.0186,0.9941,0.0592,-0.0557,-0.1055,1006.3760,23.6558,11.7364,-41.1628,298.8834,-1.3775,0.5762,90.6337,
24.962683,0.0103,0.0208,1.0092,-0.0879,-0.1402,0.2228,1006.4249,23.5704,11.8096,-41.8704,298.8785,-1.3742,0.5588,90.6337,
25.062940,0.0085,0.0107,1.0189,-0.0136,-0.1073,0.1168,1006.4188,23.1678,11.5534,-41.6630,298.8714,-1.3714,0.5563,90.3354,
25.163539,0.0366,0.0194,0.9891,0.2702,-0.0480,-0.0955,1006.4157,24.5342,11.7364,-41.4434,298.8661,-1.3691,0.5830,90.3354,
25.263672,0.0233,0.0132,1.0017,0.1115,-0.1394,-0.1071,1006.4218,23.3508,11.4680,-41.2604,298.8636,-1.3605,0.5913,90.3354,
25.364030,0.0235,0.0048,0.9931,0.1563,-0.1023,-0.1569,1006.3577,23.5216,11.0410,-40.8334,298.8631,-1.3520,0.6019,90.1605,
25.464583,0.0070,0.0094,0.9832,0.0393,-0.1537,-0.0884,1006.3301,23.3508,11.3704,-42.0534,298.8638,-1.3424,0.6044,90.1605,
25.565026,0.0318,0.0098,0.9976,0.2309,-0.1277,-0.0318,1006.3423,23.1434,11.1874,-41.8460,298.8655,-1.3299,0.6223,90.1605,
25.665202,0.0194,0.0142,1.0247,0.0807,-0.1561,0.0576,1006.3515,23.6558,11.5412,-42.0534,298.8665,-1.3100,0.6436,90.3619,
25.765569,0.0357,0.0145,1.0232,0.1404,-0.2142,0.3163,1006.3851,23.7168,11.0166,-41.8216,298.8708,-1.2979,0.6737,90.3619,
25.865996,0.0332,0.0138,1.0060,0.2816,-0.1119,0.2500,1006.3515,24.5220,11.5412,-42.1388,298.8804,-1.2932,0.6945,90.3619,
25.967115,0.0301,0.0076,0.9985,0.1641,-0.1121,0.0057,1006.3820,23.9608,11.9072,-41.7606,298.8931,-1.2834,0.7071,90.6042,
26.067228,0.0205,0.0068,1.0360,0.1723,-0.1694,0.0671,1006.3820,23.4484,11.3704,-41.6508,298.9065,-1.2774,0.7075,90.6042,
26.167254,0.0577,0.0042,1.0196,0.1410,-0.2138,0.1490,1006.3820,23.3508,11.4802,-40.8578,298.9200,-1.2857,0.7145,90.6042,
26.267748,0.0244,0.0029,0.9940,0.1256,-0.1747,0.0059,1006.3484,23.1556,11.3582,-42.1632,298.9374,-1.2805,0.7122,91.0456,
26.367952,0.0234,0.0057,0.9965,0.1270,-0.1673,0.0080,1006.3423,23.5338,11.1874,-41.8460,298.9601,-1.2802,0.6904,91.0456,
26.468487,0.0235,-0.0019,0.9749,0.1034,-0.2295,-0.1462,1006.4005,23.6314,11.1996,-41.6386,298.9790,-1.2694,0.6687,91.0456,
26.568652,0.0194,0.0002,0.9535,-0.1285,-0.2652,0.0603,1006.3303,23.9486,11.7364,-41.1506,298.9994,-1.2588,0.6350,90.9003,
26.670177,0.0059,-0.0042,0.9754,-0.0928,-0.2346,-0.2524,1006.3333,23.8510,11.6510,-41.1506,299.0140,-1.2537,0.6187,90.9003,
26.770720,0.0136,-0.0042,0.9905,0.0030,-0.2432,-0.1259,1006.3303,23.1922,12.0170,-40.6870,299.0318,-1.2338,0.5962,90.9003,
26.870999,0.0122,-0.0026,0.9933,-0.1829,-0.3123,-0.1344,1006.3669,23.4850,12.0170,-40.5772,299.0452,-1.2014,0.5475,90.5460,
26.971348,-0.0236,0.0080,0.9825,-0.3280,-0.2263,-0.1549,1006.3608,23.2776,11.8218,-41.6752,299.0554,-1.1707,0.5154,90.5460,
27.071360,-0.0201,-0.0014,0.9669,-0.2260,-0.1829,-0.3289,1006.3516,23.6558,11.7364,-41.5654,299.0651,-1.1458,0.5034,90.5460,
27.171591,-0.0285,0.0057,1.0105,0.0964,-0.0770,-0.0297,1006.4188,23.4728,11.8218,-41.6752,299.0752,-1.1197,0.4713,90.3751,
27.272226,0.0125,0.0023,1.0001,0.1645,-0.1526,0.0946,1006.3577,24.2292,11.3826,-41.6264,299.0776,-1.0891,0.4594,90.3751,
27.372111,0.0287,0.0036,1.0329,0.2863,-0.0827,0.1770,1006.3913,23.7656,11.8096,-42.3706,299.0795,-1.0798,0.4413,90.3751,
27.472224,0.0018,0.0071,1.0245,-0.1341,-0.1814,0.1727,1006.3576,24.2780,12.1756,-41.7728,299.0785,-1.0645,0.4126,91.5248,
27.572470,-0.0077,0.0033,1.0039,-0.1533,-0.2047,-0.1502,1006.3851,23.4850,12.0048,-41.4800,299.0771,-1.0400,0.3867,91.5248,
27.673053,0.0083,0.0011,0.9910,-0.0156,-0.2190,-0.1526,1006.3851,23.7900,12.1634,-42.1876,299.0771,-1.0261,0.3937,91.5248,
27.773120,0.0067,-0.0059,0.9813,0.0910,-0.1651,0.0109,1006.3484,23.2898,12.0780,-41.9924,299.0780,-1.0029,0.4114,90.5136,
27.873097,0.0287,-0.0092,0.9754,0.2518,-0.2658,-0.3116,1006.3912,23.3752,11.9072,-41.5776,299.0822,-0.9922,0.4232,90.5136,
27.973429,0.0151,-0.0246,1.0032,0.0798,-0.2954,-0.0173,1006.3393,23.1800,11.9072,-41.4800,299.0829,-0.9629,0.3999,90.5136,
28.074687,0.0017,-0.0147,1.0235,0.1065,-0.2452,-0.0384,1006.4095,23.2532,11.3826,-41.0530,299.0805,-0.9373,0.3882,89.5535,
28.176191,0.0324,-0.0037,0.9679,0.1775,-0.2756,-0.1708,1006.3637,23.4484,11.4558,-41.8582,299.0778,-0.9245,0.4003,89.5535,
28.276619,0.0289,-0.0094,1.0115,0.1717,-0.2444,0.0930,1006.3484,23.9608,11.8218,-41.5532,299.0763,-0.9050,0.3999,89.5535,
28.376935,0.0179,-0.0109,1.0060,-0.0038,-0.2072,0.0424,1006.3301,24.2414,11.5412,-42.0412,299.0776,-0.8873,0.3917,91.1008,
28.477042,0.0224,-0.0070,1.0214,-0.0566,-0.2242,-0.0218,1006.4066,23.7290,11.2850,-41.8460,299.0792,-0.8641,0.3775,91.1008,
28.577307,0.0153,-0.0072,1.0412,0.0334,-0.2214,0.2362,1006.3394,23.3752,11.9194,-41.1750,299.0772,-0.8391,0.3730,91.1008,
28.677750,0.0319,-0.0165,0.9762,-0.2878,-0.1930,-0.0120,1006.3760,23.5826,12.0048,-41.0774,299.0782,-0.8188,0.3858,90.1892,
28.778279,-0.0069,-0.0222,0.9912,0.0785,-0.2023,-0.3192,1006.2753,23.4484,11.4558,-41.7606,299.0811,-0.7995,0.3908,90.1892,
28.878454,-0.0103,-0.0158,0.9762,-0.0465,-0.2468,-0.2963,1006.3211,24.1316,11.3826,-41.4312,299.0834,-0.7843,0.3811,90.1892,
28.979032,0.0200,-0.0139,0.9949,0.1043,-0.2401,-0.0938,1006.3577,23.7534,11.7242,-41.6630,299.0877,-0.7603,0.3779,90.4413,
29.079136,0.0136,-0.0122,1.0003,0.0936,-0.2555,0.2351,1006.3974,23.1434,11.1264,-40.7480,299.0966,-0.7315,0.3924,90.4413,
29.179838,0.0322,-0.0164,1.0102,0.1743,-0.2617,0.2340,1006.3516,23.1434,11.2728,-41.9558,299.1058,-0.7004,0.4143,90.4413,
29.280407,0.0575,-0.0113,0.9789,0.4044,-0.2808,-0.0283,1006.3669,23.9486,11.6266,-42.6512,299.1226,-0.6553,0.4764,90.8730,
29.380985,0.0305,-0.0154,0.9826,0.1528,-0.2484,-0.3887,1006.4005,23.9486,11.5534,-41.8460,299.1480,-0.6293,0.5075,90.8730,
29.481323,0.0179,-0.0058,1.0157,-0.1151,-0.2963,-0.0825,1006.4005,23.3630,11.5656,-41.2604,299.1835,-0.5866,0.5382,90.8730,
29.581724,0.0193,-0.0154,1.0022,0.1133,-0.3059,0.0788,1006.3792,24.2536,11.8218,-41.3458,299.2246,-0.5165,0.6284,91.4649,
29.683071,0.0476,-0.0189,1.0174,0.3503,-0.2672,0.1465,1006.4005,22.9970,12.0780,-42.1022,299.2758,-0.4924,0.6589,91.4649,
29.783111,0.0423,-0.0050,1.0136,0.3970,-0.1939,-0.0978,1006.4402,23.4606,11.7242,-41.8704,299.3301,-0.4748,0.6789,91.4649,
29.883170,0.0281,-0.0232,1.0199,0.2463,-0.2131,-0.1420,1006.4432,23.6558,11.7364,-41.2604,299.3926,-0.4286,0.7030,91.3585,
29.983647,0.0256,-0.0256,0.9679,0.2348,-0.2342,-0.1669,1006.3883,23.7534,11.7364,-41.2604,299.4650,-0.4126,0.7104,91.3585,
30.084034,0.0070,-0.0047,0.9933,-0.0156,-0.2241,-0.0890,1006.3883,23.6802,12.0048,-41.1750,299.5422,-0.4044,0.6963,91.3585,
30.185097,0.0047,-0.0107,1.0261,-0.2158,-0.2068,0.2336,1006.4219,23.7168,11.1020,-42.0290,299.6261,-0.3856,0.6839,91.6830,
30.285215,0.0156,-0.0123,1.0187,0.0395,-0.1975,0.1632,1006.3883,23.1800,11.8218,-41.5776,299.7088,-0.3670,0.6994,91.6830,
30.385426,0.0343,-0.0130,1.0194,0.1650,-0.1600,-0.1466,1006.3944,23.1678,11.7242,-41.7728,299.8022,-0.3449,0.7228,91.6830,
30.485512,0.0351,-0.0109,0.9896,0.1960,-0.1810,-0.0855,1006.3823,24.0096,12.6270,-41.3946,299.9048,-0.3083,0.7590,97.4970,
30.585794,0.0025,-0.0120,0.9987,0.0026,-0.1692,-0.0304,1006.3732,24.1682,12.0902,-41.2604,300.0107,-0.2829,0.7741,97.4970,
30.686014,0.0411,-0.0159,1.0023,0.2063,-0.1628,-0.2121,1006.4250,23.1068,12.1756,-41.6996,300.1191,-0.2641,0.8002,97.4970,
30.786401,0.0655,-0.0021,0.9988,0.3454,-0.0885,-0.0356,1006.3915,23.4972,12.1756,-41.3824,300.2465,-0.2392,0.8680,98.9280,
30.887225,0.0407,-0.0005,1.0220,0.2774,-0.1412,0.0968,1006.3610,23.5948,12.3464,-41.7972,300.3798,-0.2229,0.8904,98.9280,
30.987149,0.0187,-0.0064,1.0063,0.1260,-0.1575,0.0657,1006.3732,23.4606,11.7120,-42.2730,300.5245,-0.2078,0.9221,98.9280,
31.087491,0.0281,-0.0022,1.0139,0.2241,-0.1723,-0.0319,1006.4281,23.5948,12.1878,-41.1872,300.6736,-0.1945,0.9371,99.9073,
31.188032,0.0381,-0.0121,1.0144,0.2352,-0.0666,-0.0406,1006.4281,24.0706,11.9804,-42.4682,300.8289,-0.1811,0.9760,99.9073,
31.288538,0.0513,-0.0122,1.0285,0.2799,-0.0863,0.1433,1006.3793,23.6070,12.4440,-41.6996,301.0064,-0.1754,0.9989,99.9073,
31.388564,0.0385,-0.0085,1.0174,0.1738,-0.1142,0.1246,1006.3945,23.1190,12.5416,-41.2116,301.1872,-0.1750,1.0118,97.7674,
31.488871,0.0296,-0.0026,0.9889,0.2909,-0.0685,-0.4220,1006.4159,24.1804,12.1878,-41.2726,301.3769,-0.1751,1.0100,97.7674,
31.589189,0.0433,-0.0022,0.9706,0.1248,-0.0627,-0.2372,1006.4037,23.3142,12.5172,-42.0168,301.5732,-0.1700,1.0052,97.7674,
31.689362,0.0348,-0.0005,0.9891,0.1296,-0.0601,0.0631,1006.3976,23.7046,12.4562,-40.8944,301.7762,-0.1655,1.0236,97.3815,
31.789375,0.0465,-0.0077,0.9886,0.3628,-0.0358,0.0460,1006.3671,24.0218,12.9686,-41.9192,301.9901,-0.1538,1.0654,97.3815,
31.890061,0.0476,-0.0032,1.0085,0.2573,-0.0897,0.0231,1006.3854,23.1312,12.7124,-41.1262,302.2285,-0.1313,1.0632,97.3815,
31.990104,0.0261,-0.0069,1.0106,0.3083,-0.0866,-0.1874,1006.4434,22.9238,12.5294,-41.5166,302.4661,-0.0975,1.0820,96.6859,
32.090466,0.0513,-0.0103,0.9990,0.2495,-0.1609,0.0422,1006.4617,23.7290,12.9808,-41.2238,302.7054,-0.0657,1.0912,96.6859,
32.190928,0.0578,-0.0058,0.9915,0.3062,-0.0975,0.1135,1006.4403,23.4362,12.7856,-42.1266,302.9589,-0.0353,1.1484,96.6859,
32.290916,0.0595,-0.0082,1.0080,0.4178,-0.0724,-0.1114,1006.4128,23.1922,13.7738,-41.6752,303.2274,0.0020,1.2363,94.9377,
32.391222,0.0438,-0.0219,1.0080,0.3428,-0.0945,-0.0089,1006.4280,22.8750,13.3224,-42.1632,303.5252,0.0372,1.2812,94.9377,
32.491636,0.0636,-0.0103,0.9780,0.3809,-0.1006,-0.1811,1006.4280,22.8750,13.2492,-41.0530,303.8191,0.0705,1.3307,94.9377,
32.591797,0.0459,-0.0035,1.0093,0.3850,-0.0702,-0.1157,1006.4738,22.8018,13.7860,-41.1872,304.1259,0.0956,1.3715,98.4361,
32.692186,0.0515,-0.0193,1.0129,0.3862,-0.1608,0.1449,1006.5104,22.5700,13.1516,-41.2604,304.4488,0.1209,1.4374,98.4361,
32.792201,0.0680,-0.0125,1.0137,0.4369,-0.1210,0.1142,1006.4525,22.7164,13.9568,-41.3946,304.7874,0.1467,1.5257,98.4361,
32.892734,0.0638,-0.0189,1.0127,0.4319,-0.1474,-0.0804,1006.4586,22.0332,13.8592,-41.8094,305.1444,0.1840,1.6120,99.8977,
32.992897,0.0602,-0.0234,1.0007,0.3938,-0.1407,-0.1436,1006.4311,22.4602,14.5546,-42.1388,305.5392,0.2231,1.6871,99.8977,
33.093213,0.0628,-0.0321,1.0030,0.3154,-0.1657,-0.2606,1006.4372,22.4480,14.3960,-41.2238,305.9299,0.2532,1.7330,99.8977,
33.193319,0.0679,-0.0172,0.9938,0.3000,-0.1423,0.0003,1006.4341,22.2650,14.5790,-41.3336,306.3309,0.2753,1.7911,99.1995,
33.293373,0.0801,0.0029,0.9826,0.2533,-0.1512,0.0197,1006.4189,21.6062,15.0304,-40.9798,306.7440,0.2999,1.8544,99.1995,
33.393768,0.0910,-0.0236,1.0072,0.3210,-0.0554,-0.1794,1006.4646,22.5944,15.1158,-40.9554,307.1729,0.3264,1.9096,99.1995,
33.493910,0.0619,-0.0212,1.0046,0.2147,-0.1483,0.0182,1006.4432,22.0332,15.6404,-41.2970,307.6201,0.3455,1.9433,98.9668,
33.594515,0.0430,-0.0415,1.0066,0.1341,-0.2983,0.0550,1006.4463,21.6306,15.2988,-40.9920,308.1001,0.3635,1.9870,98.9668,
33.694917,0.0673,-0.0349,0.9982,0.2953,-0.2955,0.0898,1006.4432,22.4114,15.4574,-41.9802,308.5620,0.3949,2.0506,98.9668,
33.795315,0.0413,-0.0304,1.0192,0.2976,-0.2244,-0.1664,1006.4677,21.7770,16.1650,-41.8338,309.0436,0.4165,2.0928,99.8293,
33.895347,0.0494,-0.0385,0.9955,0.1513,-0.3192,0.0585,1006.4432,21.5452,15.4452,-42.1998,309.5347,0.4432,2.1122,99.8293,
33.995641,0.0522,-0.0333,0.9751,0.1308,-0.2743,-0.1196,1006.4280,21.3622,15.7990,-42.1266,310.0343,0.4629,2.1219,99.8293,
34.095966,0.0345,-0.0425,1.0044,-0.0394,-0.3277,0.1662,1006.4524,21.4842,16.0796,-41.8338,310.5696,0.4846,2.1018,99.5933,
34.196343,0.0523,-0.0349,1.0277,0.0362,-0.2448,0.2805,1006.4066,21.7892,16.4334,-41.9436,311.0922,0.4896,2.1061,99.5933,
34.296437,0.0371,-0.0241,1.0270,0.0717,-0.2195,0.3284,1006.4677,21.2524,17.2996,-42.5048,311.6230,0.4813,2.1110,99.5933,
34.396866,0.0314,-0.0203,1.0224,0.0033,-0.1229,0.0658,1006.4615,20.5448,16.8726,-41.6996,312.1665,0.4683,2.1244,100.3041,
34.497124,0.0326,-0.0320,1.0107,0.0455,-0.2099,-0.0842,1006.4615,20.7522,17.0556,-41.6996,312.7098,0.4654,2.1125,100.3041,
34.597349,0.0386,-0.0211,0.9741,0.0138,-0.2418,-0.2461,1006.4249,20.8742,17.4826,-42.1144,313.2658,0.4487,2.1265,100.3041,
34.697959,0.0428,-0.0343,0.9831,0.0724,-0.2555,-0.1509,1006.4097,21.1792,17.5802,-42.1144,313.8474,0.4355,2.1443,99.6451,
34.798440,0.0507,-0.0284,1.0045,-0.0358,-0.2525,0.1010,1006.4005,21.0084,18.1170,-42.0412,314.4089,0.4480,2.1513,99.6451,
34.898579,0.0397,-0.0295,0.9998,-0.0835,-0.1475,-0.1307,1006.3700,20.3252,18.0194,-42.0656,314.9816,0.4611,2.1397,99.6451,
34.998880,0.0139,-0.0213,0.9936,-0.1239,-0.1638,0.0022,1006.4341,20.3618,18.6294,-42.7976,315.5579,0.4720,2.1043,98.5231,
35.099120,0.0138,-0.0202,0.9992,-0.1743,-0.1127,-0.0196,1006.4066,19.6908,18.8124,-42.2120,316.1353,0.4796,2.0275,98.5231,
35.199259,0.0059,-0.0163,1.0024,-0.0795,-0.0965,-0.0170,1006.4310,20.2764,18.9222,-41.5044,316.7131,0.4821,1.9688,98.5231,
35.299406,-0.0004,-0.0232,1.0060,-0.1398,-0.0808,-0.0411,1006.4280,19.8128,19.1662,-42.3340,317.3193,0.4822,1.9713,96.1727,
35.399518,-0.0062,-0.0116,1.0102,-0.4146,-0.1153,0.1709,1006.4159,19.3126,19.0686,-42.6390,317.9056,0.4692,1.9457,96.1727,
35.499801,-0.0014,-0.0190,1.0130,-0.4539,-0.0760,0.1612,1006.4312,19.8372,19.6908,-43.0538,318.4880,0.4503,1.8645,96.1727,
35.600149,-0.0059,-0.0118,0.9915,-0.3466,-0.0197,-0.0213,1006.3976,18.8490,19.3492,-41.8582,319.0605,0.4290,1.8083,95.7625,
35.700543,-0.0117,-0.0075,1.0109,-0.2657,0.0122,0.1147,1006.4128,19.4346,19.5200,-42.3584,319.6284,0.4088,1.7858,95.7625,
35.801165,0.0148,-0.0085,0.9975,-0.1543,-0.0029,-0.0011,1006.4159,18.6782,19.7884,-42.2974,320.2162,0.3767,1.8514,95.7625,
35.901055,-0.0166,-0.0149,0.9821,-0.2232,-0.0014,-0.2438,1006.4006,18.4098,20.2398,-42.1144,320.7873,0.3486,1.8375,94.0519,
36.001694,0.0022,-0.0108,0.9663,-0.3352,-0.0436,-0.3211,1006.3945,18.0316,20.3984,-42.5414,321.3611,0.3277,1.8268,94.0519,
36.101895,0.0008,-0.0114,0.9814,-0.4201,-0.0291,-0.2737,1006.3976,17.9218,20.3130,-42.5414,321.9303,0.3120,1.7926,94.0519,
36.203229,-0.0016,-0.0082,0.9792,-0.4574,0.0109,0.0076,1006.3701,17.7266,20.3130,-42.5414,322.4867,0.3005,1.7331,97.7904,
36.303604,0.0026,-0.0093,1.0064,-0.2902,0.0104,-0.0391,1006.3884,17.8486,20.5692,-42.9562,323.0529,0.2846,1.7090,97.7904,
36.403972,-0.0091,-0.0020,1.0141,-0.3094,-0.0074,0.1164,1006.4128,17.2020,21.3012,-42.1022,323.6030,0.2763,1.6766,97.7904,
36.504281,-0.0146,-0.0001,1.0134,-0.3869,-0.0151,0.1064,1006.3823,17.4948,21.3866,-42.3950,324.1506,0.2635,1.6225,99.3315,
36.604635,-0.0158,-0.0088,0.9933,-0.3577,-0.0235,-0.0222,1006.4067,17.4338,21.8380,-42.0168,324.6882,0.2465,1.5427,99.3315,
36.704913,-0.0182,-0.0085,0.9838,-0.2796,0.0170,0.0073,1006.4311,16.4334,21.4598,-42.6390,325.2193,0.2327,1.4927,99.3315,
36.805277,0.0020,-0.0031,1.0062,-0.2422,-0.0438,0.1864,1006.3792,16.3602,21.8136,-42.7488,325.7720,0.2195,1.4853,99.4384,
36.905982,-0.0276,-0.0082,1.0027,-0.4268,-0.0492,0.0318,1006.3823,15.9698,21.9112,-42.5658,326.2995,0.2039,1.4302,99.4384,
37.006039,-0.0324,-0.0010,0.9880,-0.3498,0.0122,-0.1249,1006.3762,17.0678,22.3504,-42.5658,326.8153,0.1880,1.3519,99.4384,
37.106494,-0.0089,-0.0005,1.0113,-0.2856,0.0118,-0.1170,1006.3914,16.5432,21.7404,-42.4438,327.3236,0.1722,1.2969,96.5374,
37.207157,0.0069,0.0019,0.9980,-0.2233,0.0336,0.1375,1006.4097,16.3968,22.4480,-42.4804,327.8610,0.1576,1.2286,96.5374,
37.307434,-0.0123,-0.0131,0.9904,-0.2717,-0.0702,-0.0675,1006.3914,16.3236,22.9848,-42.0046,328.3621,0.1429,1.2017,96.5374,
37.407827,-0.0010,0.0027,0.9864,-0.2020,0.0864,-0.1449,1006.3853,15.7258,22.6188,-42.5048,328.8567,0.1293,1.1917,98.5793,
37.508055,-0.0125,-0.0039,1.0000,-0.3469,0.0300,-0.1021,1006.3456,16.0430,23.0702,-42.3218,329.3500,0.1155,1.1272,98.5793,
37.608419,-0.0072,-0.0028,0.9856,-0.2521,-0.0005,-0.0372,1006.3731,16.2382,23.1434,-43.1270,329.8367,0.1061,1.0692,98.5793,
37.708640,-0.0141,-0.0007,0.9822,-0.3182,0.0003,-0.0739,1006.3365,14.9816,23.3996,-43.1758,330.3174,0.0943,1.0067,99.9106,
37.808917,0.0025,-0.0067,1.0054,-0.2641,-0.0336,0.1522,1006.3701,14.1764,22.9604,-42.8708,330.8163,0.0801,0.9480,99.9106,
37.909289,-0.0334,-0.0121,1.0107,-0.3172,-0.0758,0.1172,1006.3731,15.0792,23.4240,-42.4682,331.2656,0.0716,0.9381,99.9106,
38.009531,-0.0283,0.0064,1.0060,-0.3335,-0.0438,0.0493,1006.4189,14.5058,23.4118,-42.6756,331.7477,0.0608,0.8507,98.3938,
38.110019,0.0071,-0.0051,0.9990,-0.3883,-0.0130,-0.1216,1006.3701,14.0300,23.7656,-42.6146,332.2076,0.0501,0.7909,98.3938,
38.210466,0.0022,0.0025,0.9925,-0.2856,0.0392,-0.1197,1006.3975,13.8592,24.0340,-42.7244,332.6597,0.0422,0.7677,98.3938,
38.310753,-0.0204,0.0022,0.9958,-0.3111,0.0429,0.0846,1006.3517,13.9446,23.8632,-42.1144,333.1290,0.0318,0.7085,97.8288,
38.411404,0.0092,0.0060,1.0169,-0.3088,0.0106,0.0777,1006.3792,13.9568,24.0218,-42.9318,333.5479,0.0208,0.6859,97.8288,
38.511402,0.0009,0.0088,0.9944,-0.2713,-0.0224,-0.1770,1006.4067,14.1276,23.6802,-42.4072,334.0126,0.0089,0.6865,97.8288,
38.611807,-0.0163,0.0062,1.0096,-0.3798,0.0448,-0.0090,1006.3975,13.0662,23.9364,-42.9440,334.4455,-0.0013,0.6197,98.4088,
38.712288,-0.0121,0.0143,1.0032,-0.0947,0.0445,0.0013,1006.3731,12.6026,24.2048,-42.5658,334.8722,-0.0183,0.5855,98.4088,
38.813467,-0.0155,-0.0017,1.0067,-0.2263,0.0073,0.0687,1006.3914,13.1760,24.0340,-42.6512,335.3154,-0.0328,0.5752,98.4088,
38.913523,-0.0044,0.0063,1.0056,-0.0979,0.0747,-0.0365,1006.3792,13.3834,24.3024,-42.5536,335.7117,-0.0442,0.5727,95.4104,
39.013824,-0.0034,0.0098,1.0059,-0.0315,-0.0405,0.1570,1006.3975,12.4806,23.9364,-42.5658,336.1509,-0.0581,0.5190,95.4104,
39.114553,-0.0015,-0.0004,0.9894,-0.1473,0.0297,-0.0923,1006.3487,13.3834,24.3878,-42.8586,336.5624,-0.0694,0.4941,95.4104,
39.215266,-0.0154,-0.0027,0.9895,-0.1800,0.0438,-0.1132,1006.3456,11.4436,24.4610,-43.3222,336.9909,-0.0780,0.4916,93.2141,
39.317322,-0.0106,0.0072,1.0180,-0.2004,0.0686,0.1312,1006.3426,12.6270,24.7294,-42.9928,337.3916,-0.0868,0.4566,93.2141,
39.416132,-0.0049,0.0066,1.0004,-0.1823,0.1369,0.0260,1006.3578,12.3342,24.7416,-42.8098,337.7849,-0.1012,0.4599,93.2141,
39.516303,-0.0022,0.0005,1.0022,-0.2227,0.0845,0.1237,1006.3578,12.3342,24.7416,-42.7000,338.1758,-0.1219,0.4217,93.7078,
39.616484,-0.0321,0.0249,0.9823,-0.1877,0.0210,-0.1631,1006.3823,11.4680,24.9124,-42.5292,338.5604,-0.1371,0.3959,93.7078,
39.717067,-0.0297,0.0088,0.9792,-0.3487,0.0364,0.0069,1006.3395,11.4802,25.0222,-41.8338,338.9421,-0.1560,0.3545,93.7078,
39.817227,0.0018,-0.0019,1.0102,-0.1286,0.0401,-0.1199,1006.3853,11.4680,24.9978,-42.8464,339.3355,-0.1733,0.3405,95.7117,
39.917356,-0.0130,0.0139,1.0004,-0.0042,0.0559,0.0206,1006.3487,11.1996,25.2662,-42.6634,339.7120,-0.1874,0.3271,95.7117,
40.017780,-0.0027,0.0072,1.0219,-0.0702,0.0630,0.0685,1006.4067,11.3094,25.5346,-42.7732,340.0853,-0.1979,0.2950,95.7117,
40.117950,-0.0123,0.0145,1.0090,-0.1402,0.0412,-0.0055,1006.3334,11.5900,25.3638,-42.4560,340.4496,-0.2084,0.2669,94.6522,
40.218277,0.0046,0.0135,0.9950,-0.1485,0.0455,-0.0731,1006.3670,10.8092,25.2662,-42.6756,340.8131,-0.2212,0.2511,94.6522,
40.318261,-0.0156,0.0047,0.9953,-0.1376,0.0519,0.0480,1006.3640,11.1996,25.3638,-42.4682,341.1784,-0.2329,0.2389,94.6522,
40.418725,-0.0213,0.0113,0.9984,-0.1833,0.0551,0.0050,1006.3334,11.0410,25.8884,-42.5902,341.5527,-0.2451,0.2170,94.0640,
40.519084,-0.0152,-0.0017,0.9810,-0.0447,0.1014,-0.1852,1006.3762,10.6262,25.5224,-42.9928,341.9119,-0.2606,0.2153,94.0640,
40.619359,-0.0192,0.0095,0.9908,-0.1391,0.0207,-0.0642,1006.3456,10.1504,25.7054,-42.8098,342.2726,-0.2711,0.2094,94.0640,
40.719870,-0.0151,0.0108,1.0146,-0.2113,0.0929,0.0528,1006.3762,9.9674,25.9738,-42.7244,342.6286,-0.2792,0.1837,93.3634,
40.820338,0.0073,0.0137,0.9897,-0.0319,0.0490,-0.0087,1006.3273,9.9796,26.1446,-42.8342,342.9829,-0.2916,0.1838,93.3634,
40.920620,-0.0036,0.0066,1.0138,0.0003,0.0759,-0.0756,1006.3914,10.1870,26.2544,-42.0290,343.3361,-0.3089,0.1829,93.3634,
41.020652,0.0073,0.0118,1.0095,-0.0689,0.0600,-0.0004,1006.3640,9.8698,25.8274,-41.5166,343.7070,-0.3227,0.1678,93.1545,
41.121129,0.0037,0.0118,0.9960,0.0231,0.0081,-0.0519,1006.3182,9.6014,26.2422,-42.6512,344.0550,-0.3364,0.1543,93.1545,
41.221661,0.0109,0.0197,0.9723,-0.1652,0.0109,-0.0924,1006.3517,9.6136,26.5106,-42.6634,344.4060,-0.3486,0.1451,93.1545,
41.321687,0.0242,0.0219,1.0052,0.1840,0.0689,0.0419,1006.3549,9.4672,25.6200,-42.8220,344.7556,-0.3608,0.1494,93.1386,
41.422387,-0.0002,0.0252,1.0162,-0.0154,0.0420,0.1069,1006.3610,9.6746,25.8030,-42.4316,345.1045,-0.3731,0.1343,93.1386,
41.522535,-0.0110,0.0073,1.0030,-0.0809,0.0253,0.0159,1006.3671,8.6986,25.8762,-42.7610,345.4674,-0.3870,0.1193,93.1386,
41.622672,-0.0235,-0.0007,0.9870,-0.2036,0.0706,-0.0244,1006.3518,8.6254,26.2422,-42.7732,345.8131,-0.4011,0.1070,93.1776,
41.723352,-0.0240,-0.0029,0.9830,-0.0578,0.0215,-0.1242,1006.3274,7.9300,26.1568,-42.4926,346.1625,-0.4061,0.0917,93.1776,
41.823416,0.0027,0.0068,0.9855,-0.0533,0.0222,-0.1687,1006.2999,8.4180,26.1568,-42.5780,346.5106,-0.4160,0.0876,93.1776,
41.924312,-0.0017,0.0162,1.0119,-0.0698,0.0485,0.0836,1006.3060,8.1740,26.8522,-43.0172,346.8720,-0.4280,0.0892,94.4014,
42.024183,0.0099,0.0123,1.0078,0.0550,0.0391,0.0381,1006.3030,8.4424,26.4008,-43.1880,347.2223,-0.4359,0.0858,94.4014,
42.124599,-0.0062,0.0146,1.0222,-0.1610,0.0724,-0.0376,1006.3304,7.9422,26.2422,-42.4926,347.5202,-0.4433,0.0624,94.4014,
42.225009,-0.0013,0.0181,0.9777,0.0307,0.0302,-0.0029,1006.3182,8.2472,26.4984,-43.2002,347.9174,-0.4443,0.0238,94.0354,
42.325792,0.0025,0.0180,1.0149,-0.0399,0.0487,-0.0072,1006.3243,7.7714,26.7668,-42.6268,348.2606,-0.4510,0.0106,94.0354,
42.426874,-0.0022,0.0091,1.0138,0.0273,0.0660,0.0192,1006.2480,8.3448,26.5228,-41.9924,348.6198,-0.4682,0.0707,94.0354,
42.528306,0.0078,0.0069,1.0108,0.0841,0.0134,0.2001,1006.2847,6.6246,27.0230,-43.1758,348.9650,-0.4868,0.0651,93.4396,
42.627554,0.0033,0.0112,0.9906,-0.0518,0.0041,0.0213,1006.3396,7.0028,26.9376,-43.1514,349.3095,-0.5072,0.0517,93.4396,
42.727797,0.0079,0.0112,1.0032,-0.1182,0.0602,-0.0894,1006.3274,7.2834,26.5838,-42.9318,349.6497,-0.5212,0.0383,93.4396,
42.828454,-0.0096,0.0149,0.9971,-0.0582,0.0648,-0.1536,1006.3549,6.7954,26.7546,-43.1514,349.9902,-0.5324,0.0392,93.1858,
42.928414,-0.0172,0.0223,1.0030,-0.1580,0.0774,0.0746,1006.3030,6.2952,26.4008,-42.9440,350.3462,-0.5462,0.0238,93.1858,
43.028892,0.0060,0.0231,0.9789,-0.1584,0.0328,-0.0611,1006.3396,6.9052,26.9376,-43.1636,350.6834,-0.5523,-0.0158,93.1858,
43.129216,-0.0302,0.0121,0.9744,-0.3109,0.0323,0.0724,1006.2847,5.6730,27.5598,-42.9196,351.0194,-0.5663,0.0395,93.6840,
43.229309,0.0057,0.0176,1.0036,0.0185,0.0160,0.0016,1006.2510,6.0512,27.2914,-42.9928,351.3527,-0.5751,0.0287,93.6840,
43.329514,0.0004,0.0055,0.9919,-0.0402,0.0990,-0.0093,1006.2541,5.9048,26.4862,-43.0660,351.6795,-0.5899,0.0185,93.6840,
43.430104,0.0066,0.0110,0.9971,-0.1760,0.0551,0.1433,1006.2663,4.9776,27.2792,-43.2246,352.0079,-0.6037,0.0051,94.7222,
43.530446,-0.0175,0.0119,0.9894,-0.0425,0.0261,-0.1587,1006.2968,4.8678,27.0230,-42.9196,352.3499,-0.6151,-0.0053,94.7222,
43.630446,0.0135,0.0185,1.0026,0.0443,0.0551,-0.0096,1006.2999,5.0752,27.2182,-42.1144,352.6737,-0.6275,-0.0173,94.7222,
43.731478,0.0034,0.0237,0.9858,-0.1730,0.0755,-0.0438,1006.2755,5.3680,27.2060,-42.5048,352.9925,-0.6398,-0.0198,94.3492,
43.831715,-0.0050,0.0191,1.0001,0.1116,0.0407,0.1498,1006.2663,5.2460,26.9376,-43.0050,353.3092,-0.6503,-0.0186,94.3492,
43.932136,-0.0009,0.0211,0.9924,0.0202,0.0531,-0.0248,1006.2755,5.3680,27.2792,-43.4198,353.6234,-0.6609,-0.0207,94.3492,
44.032680,0.0136,0.0146,0.9922,0.1317,0.0113,-0.0303,1006.2785,4.8800,27.2914,-42.8342,353.9551,-0.6692,-0.0361,93.3642,
44.132911,0.0001,0.0182,0.9773,0.0486,-0.0136,-0.1164,1006.2266,4.7092,27.6452,-42.7488,354.2672,-0.6790,-0.0791,93.3642,
44.233466,0.0137,0.0014,0.9894,0.0105,0.0240,0.2312,1006.3122,4.7092,27.5476,-43.1514,354.5762,-0.6895,-0.0978,93.3642,
44.333326,-0.0312,0.0180,0.9944,0.0437,0.0341,-0.0840,1006.3091,4.1968,27.2792,-43.0416,354.8847,-0.6964,-0.0942,93.7556,
44.434902,-0.0045,0.0107,1.0049,-0.0106,0.0074,0.0143,1006.2847,4.3798,27.1084,-43.2368,355.2094,-0.7040,-0.1108,93.7556,
44.534048,-0.0059,0.0143,0.9927,-0.2953,-0.0254,-0.0368,1006.3641,4.3188,27.6452,-42.7610,355.5175,-0.7083,-0.1262,93.7556,
44.634385,-0.0326,0.0187,0.9937,-0.1039,0.0601,-0.1345,1006.3824,3.7332,27.5598,-42.4682,355.8234,-0.7154,-0.1384,92.4835,
44.734488,-0.0367,0.0223,0.9890,-0.0892,-0.0247,-0.0785,1006.3458,3.7088,27.2670,-43.7614,356.1260,-0.7237,-0.1493,92.4835,
44.834745,-0.0115,0.0191,0.9858,-0.0908,0.0407,-0.1257,1006.3519,3.5258,27.4500,-43.5784,356.4305,-0.7339,-0.1654,92.4835,
44.935446,-0.0308,0.0015,0.9853,-0.0595,0.0592,-0.0644,1006.3580,3.9894,26.9376,-42.5292,356.7343,-0.7417,-0.1731,92.9560,
45.035460,0.0081,0.0166,1.0092,0.0069,0.0354,0.1581,1006.3641,4.0260,27.5598,-42.5658,357.0496,-0.7445,-0.2043,92.9560,
45.136006,-0.0229,0.0117,1.0074,-0.1752,-0.0198,0.0050,1006.3610,3.7820,26.7424,-43.2368,357.3517,-0.7471,-0.1974,92.9560,
45.236336,-0.0019,0.0162,1.0005,-0.1949,0.0479,0.0033,1006.3640,3.5136,27.2060,-42.5536,357.6487,-0.7543,-0.2029,93.1631,
45.336673,-0.0113,0.0182,1.0019,0.0888,0.0081,0.0621,1006.3487,3.0256,27.1816,-43.3710,357.8850,-0.7550,-0.1961,93.1631,
45.437286,-0.0015,0.0238,1.0103,-0.0266,0.0738,-0.0710,1006.3426,3.2330,27.4500,-43.4808,358.2408,-0.7603,-0.1961,93.1631,
45.537617,-0.0079,0.0027,0.9879,-0.1013,-0.0541,-0.1406,1006.3212,3.0500,27.6330,-43.4930,358.5526,-0.7606,-0.2019,93.5514,
45.637822,-0.0161,0.0128,1.0048,-0.1300,0.0023,0.0017,1006.2968,3.4526,27.7306,-42.6878,358.8473,-0.7609,-0.2436,93.5514,
45.739026,0.0089,0.0236,1.0206,-0.1283,-0.0007,0.0508,1006.2816,2.6596,27.6330,-43.1026,359.1453,-0.7604,-0.2731,93.5514,
45.838737,0.0022,0.0150,1.0110,-0.0210,-0.0476,0.0900,1006.2999,2.0618,27.4500,-43.1148,359.4384,-0.7654,-0.2958,93.8394,
45.939218,0.0151,0.0248,0.9904,0.0720,0.0210,-0.1204,1006.2968,2.6474,27.4500,-43.5052,359.7323,-0.7673,-0.3013,93.8394,
46.039947,-0.0166,0.0195,1.0131,0.0374,0.0247,-0.1785,1006.3029,2.0862,27.7306,-42.9196,0.0263,-0.7732,-0.3026,93.8394,
46.139800,-0.0200,0.0248,0.9999,-0.1087,0.0089,0.0151,1006.2846,1.6104,27.9136,-42.5414,0.3318,-0.7701,-0.3247,94.6200,
46.241412,-0.0003,0.0051,0.9503,-0.0869,0.0194,0.3370,1006.2632,2.4400,27.1938,-42.6878,0.6226,-0.7594,-0.3102,94.6200,
46.340880,-0.0092,0.0152,1.0045,0.0010,0.0527,0.1483,1006.2053,2.5498,27.4622,-42.6024,0.9073,-0.7582,-0.3121,94.6200,
46.440991,-0.0278,0.0139,1.0092,-0.1252,0.0091,-0.0373,1006.1992,1.6592,27.1938,-42.7122,1.1865,-0.7597,-0.3251,93.5160,
46.541795,-0.0032,0.0137,1.0183,-0.0491,0.0050,-0.0141,1006.2236,1.4762,27.4622,-42.7244,1.4799,-0.7666,-0.3329,93.5160,
46.641714,-0.0061,0.0124,0.9815,0.0997,0.0191,-0.0445,1006.2205,1.0614,27.0108,-43.1148,1.7598,-0.7768,-0.3597,93.5160,
46.742068,-0.0042,0.0137,1.0112,0.2571,0.0288,0.1026,1006.2663,1.6836,27.6330,-42.9318,2.0397,-0.7871,-0.3888,97.2411,
46.842799,0.0099,0.0106,1.0075,0.1661,0.0268,0.0252,1006.3640,1.2932,27.5598,-42.4316,2.3167,-0.7997,-0.3772,97.2411,
46.943073,-0.0256,0.0186,0.9785,0.1315,0.0414,0.0493,1006.3212,1.0858,27.2792,-42.8342,2.5836,-0.8110,-0.3770,97.2411,
47.043462,0.0103,0.0131,1.0027,0.2043,-0.0328,-0.0366,1006.3304,1.2810,27.3646,-43.1270,2.8676,-0.8158,-0.3945,99.5640,
47.143575,0.0093,0.0150,0.9877,0.0769,-0.0039,-0.1197,1006.3426,0.7198,27.7306,-42.4560,3.1417,-0.8189,-0.4303,99.5640,
47.243758,-0.0038,0.0222,0.9961,-0.0648,0.0227,-0.1114,1006.2969,0.8906,27.2914,-42.4316,3.4146,-0.8224,-0.4237,99.5640,
47.344160,0.0181,0.0240,0.9994,0.0917,0.0399,-0.0564,1006.2877,0.6100,27.5354,-43.4564,3.6848,-0.8292,-0.4174,99.0649,
47.444808,-0.0189,0.0093,1.0108,-0.0679,0.0225,0.3017,1006.2877,1.4884,27.5476,-42.9318,3.9562,-0.8333,-0.4397,99.0649,
47.547715,-0.0216,0.0222,0.9873,-0.0321,0.0370,-0.0337,1006.2938,0.2562,28.1576,-43.0904,4.2411,-0.8414,-0.4257,100.0617,
47.647905,-0.0133,0.0236,0.9914,-0.1456,0.0924,0.0812,1006.2725,0.2196,27.4500,-42.8586,4.5101,-0.8524,-0.4392,100.0617,
47.748408,0.0008,0.0137,1.0084,-0.0979,0.0164,-0.1720,1006.3091,0.1464,27.9746,-43.3954,4.7806,-0.8601,-0.4263,100.0617,
47.848654,-0.0147,0.0162,1.0188,-0.0691,0.0308,0.0530,1006.3213,0.3172,27.6330,-43.0660,5.0655,-0.8702,-0.4251,99.1540,
47.948916,-0.0136,0.0065,0.9987,-0.0722,-0.0278,-0.0090,1006.2694,-0.3538,27.7062,-43.3954,5.3303,-0.8801,-0.4175,99.1540,
48.051217,-0.0177,0.0152,1.0011,-0.0235,0.0346,-0.0958,1006.3060,-0.2684,27.4622,-42.5780,5.5966,-0.8889,-0.4215,99.1540,
48.152293,-0.0175,0.0136,0.9944,-0.0972,0.0633,-0.0570,1006.3152,-0.3660,27.6330,-42.7854,5.8749,-0.9010,-0.4125,96.3940,
48.252154,-0.0222,0.0139,0.9893,-0.2104,-0.0129,-0.1254,1006.3061,-0.7564,27.5476,-42.2852,6.1406,-0.9102,-0.4267,96.3940,
48.352627,-0.0022,0.0154,0.9932,-0.1327,-0.0024,-0.0667,1006.2786,0.0610,28.0722,-42.8952,6.4027,-0.9175,-0.4275,96.3940,
48.452490,-0.0225,0.0284,0.9734,-0.1730,0.0281,-0.0560,1006.3397,-0.6344,27.9014,-42.8098,6.6606,-0.9243,-0.4271,95.9426,
48.552678,-0.0033,0.0220,0.9897,-0.1097,-0.0061,-0.0935,1006.3030,-1.0492,27.5232,-43.7004,6.9186,-0.9335,-0.4187,95.9426,
48.653358,-0.0083,0.0215,0.9875,-0.0432,0.0116,-0.0287,1006.2817,-1.2566,27.3646,-42.5902,7.1880,-0.9458,-0.4303,95.9426,
48.753317,-0.0066,0.0250,1.0007,-0.0913,0.0070,0.0182,1006.3152,-0.7198,28.2552,-42.9196,7.4418,-0.9567,-0.4517,96.2339,
48.853714,-0.0176,0.0160,0.9875,-0.0666,-0.0046,-0.1270,1006.3091,-1.2078,28.1698,-42.7366,7.6910,-0.9660,-0.4589,96.2339,
48.953937,-0.0007,0.0211,0.9905,0.0083,0.0631,0.1189,1006.2939,-1.1346,27.6330,-42.6024,7.9368,-0.9732,-0.4864,96.2339,
49.054553,-0.0055,0.0224,0.9808,-0.0652,0.0183,-0.0699,1006.3366,-1.1590,27.2670,-43.1880,8.1855,-0.9817,-0.4972,97.6381,
49.155633,-0.0047,0.0115,0.9944,0.2118,0.0332,-0.1153,1006.3215,-2.3058,27.6086,-43.5418,8.4498,-0.9876,-0.4884,97.6381,
49.255854,-0.0225,0.0201,1.0076,-0.1088,0.0190,0.0676,1006.2819,-1.3420,27.5110,-44.0176,8.6940,-0.9979,-0.5025,97.6381,
49.356077,-0.0055,0.0097,1.0097,-0.0641,-0.0024,0.1559,1006.3398,-2.6230,27.1816,-42.7244,8.9363,-1.0100,-0.5196,96.0966,
49.456750,0.0143,0.0356,0.9986,-0.1829,0.0564,0.0062,1006.3307,-1.5250,27.6208,-43.4198,9.1742,-1.0204,-0.5363,96.0966,
49.556916,-0.0225,0.0125,1.0232,-0.0611,-0.0326,0.1839,1006.3093,-2.0252,27.4378,-43.5296,9.4109,-1.0334,-0.5590,96.0966,
49.657063,-0.0061,0.0167,1.0191,-0.2317,0.1001,-0.1509,1006.3215,-2.3424,27.1084,-42.3096,9.6423,-1.0436,-0.5909,97.0415,
49.757438,-0.0431,0.0247,0.9974,-0.2106,0.0826,-0.1793,1006.3185,-2.2326,27.2792,-42.5170,9.8854,-1.0578,-0.6098,97.0415,
49.857648,-0.0195,0.0214,0.9990,-0.2633,0.0653,-0.1885,1006.2849,-2.9158,27.3524,-42.9440,10.1093,-1.0728,-0.6629,97.0415,
49.958310,-0.0098,0.0222,0.9800,-0.1925,-0.0302,0.0411,1006.2666,-2.4400,27.0962,-42.5170,10.3234,-1.0838,-0.6303,95.4596,
50.058745,-0.0108,0.0224,1.0264,-0.2669,0.1268,-0.1259,1006.2788,-2.9036,27.4500,-42.8464,10.5529,-1.0941,-0.6572,95.4596,
50.159038,-0.0028,0.0225,0.9957,-0.0979,-0.0094,-0.1202,1006.2576,-2.8182,27.1816,-42.6268,10.7672,-1.1022,-0.6515,95.4596,
50.259207,-0.0180,0.0336,1.0039,-0.1927,0.0550,0.0856,1006.3094,-2.9280,27.0962,-42.7244,10.9870,-1.1133,-0.6775,94.7027,
50.359730,-0.0043,0.0270,0.9995,0.0899,0.0500,-0.0240,1006.2942,-3.0988,27.5232,-43.3588,11.1918,-1.1225,-0.6654,94.7027,
50.459955,-0.0049,0.0185,0.9951,-0.0376,0.0030,0.0931,1006.3491,-3.0012,27.4378,-43.4442,11.3940,-1.1308,-0.6695,94.7027,
50.559915,0.0011,0.0242,1.0134,0.3411,0.0995,-0.0680,1006.2881,-3.1110,27.1694,-43.5418,11.5922,-1.1421,-0.6611,96.7268,
50.660404,-0.0121,0.0338,0.9786,-0.0015,0.0836,-0.1722,1006.3247,-3.4648,27.7916,-43.1758,11.7896,-1.1520,-0.6666,96.7268,
50.761629,-0.0123,0.0347,0.9997,0.0455,0.1505,0.0080,1006.2942,-3.3062,27.3402,-43.4564,11.9926,-1.1640,-0.6785,96.7268,
50.862774,-0.0228,0.0305,1.0053,0.1483,0.1633,-0.3159,1006.2637,-3.5868,27.4378,-43.1636,12.1863,-1.1731,-0.6868,95.1967,
50.962294,-0.0213,0.0372,1.0001,-0.0536,-0.0579,0.4727,1006.2881,-3.3428,26.5472,-43.3100,12.3822,-1.1843,-0.6800,95.1967,
51.062854,-0.0133,0.0345,0.9496,-0.0423,0.1807,-0.4106,1006.2820,-4.0504,27.7916,-43.0904,12.5693,-1.1923,-0.6800,95.1967,
51.164125,-0.0033,0.0251,1.0373,0.1085,0.0125,0.3742,1006.3063,-3.8796,27.5232,-43.1758,12.7678,-1.2083,-0.6624,94.1373,
51.264624,-0.0326,0.0156,0.9856,-0.0987,0.1702,-0.4623,1006.2727,-3.6844,27.5232,-43.3710,12.9537,-1.2092,-0.6657,94.1373,
51.365122,-0.0290,0.0265,1.0049,0.1027,0.0396,0.0761,1006.2635,-3.6966,27.1694,-43.0538,13.1444,-1.2157,-0.6872,94.1373,
51.465011,-0.0421,0.0350,0.9854,0.0412,0.1458,0.0795,1006.2635,-4.3676,27.3402,-43.3832,13.3293,-1.2259,-0.6845,95.9294,
51.565441,-0.0061,0.0193,0.9911,0.0000,0.0230,-0.0423,1006.2788,-4.3676,27.3646,-42.5780,13.5141,-1.2419,-0.6660,95.9294,
51.665813,-0.0309,0.0435,0.9943,-0.1292,0.0463,0.1051,1006.3276,-4.4774,27.1816,-42.7732,13.7047,-1.2538,-0.6876,95.9294,
51.766535,0.0048,0.0255,1.0182,0.1299,0.0340,0.0699,1006.2727,-4.4774,27.2670,-42.9806,13.8836,-1.2622,-0.6856,95.9817,
51.866666,-0.0301,0.0277,1.0017,0.1219,0.0656,-0.0241,1006.2666,-4.4042,26.8888,-43.9688,14.0635,-1.2816,-0.6531,95.9817,
51.966910,0.0111,0.0303,1.0226,0.1336,0.0163,0.1887,1006.2849,-5.0630,27.2670,-42.8952,14.2408,-1.2927,-0.6506,95.9817,
52.067012,-0.0107,0.0301,0.9924,-0.1006,0.0521,0.0615,1006.2910,-4.8678,27.2548,-43.1880,14.4129,-1.3012,-0.6544,94.6915,
52.167460,-0.0021,0.0266,1.0044,0.0796,0.0086,-0.0063,1006.3064,-4.4164,26.6326,-43.3466,14.5952,-1.3163,-0.6411,94.6915,
52.267675,-0.0061,0.0204,0.9790,0.1001,0.0454,-0.1458,1006.2820,-4.5018,26.9010,-43.1636,14.7652,-1.3330,-0.6056,94.6915,
52.367819,-0.0033,0.0276,1.0019,0.0518,0.0497,-0.0298,1006.2545,-5.9658,26.8156,-42.8952,14.9362,-1.3440,-0.6188,94.1040,
52.468388,-0.0124,0.0319,0.9881,-0.1978,0.0127,-0.1614,1006.2637,-4.3920,26.9986,-42.9684,15.1021,-1.3550,-0.6223,94.1040,
52.568476,-0.0029,0.0302,0.9966,0.1340,0.0469,-0.0037,1006.3064,-3.9040,26.9986,-42.6512,15.2644,-1.3704,-0.6280,94.1040,
52.669003,-0.0054,0.0313,1.0226,-0.0665,0.0755,-0.0141,1006.2545,-5.1728,26.9864,-43.1880,15.4313,-1.3863,-0.6031,98.1411,
52.769294,-0.0194,0.0319,1.0086,0.1612,0.1155,0.1320,1006.3308,-5.2948,26.6326,-43.4686,15.5965,-1.3954,-0.6048,98.1411,
52.869486,-0.0167,0.0291,0.9976,-0.1664,0.0846,-0.3271,1006.2942,-4.5994,26.8278,-42.7610,15.7717,-1.4066,-0.5940,98.1411,
52.970300,-0.0244,0.0283,1.0031,-0.0855,0.0780,-0.2617,1006.2850,-5.2704,26.9132,-42.4804,15.9359,-1.4188,-0.5698,97.5476,
53.070584,-0.0322,0.0384,0.9753,0.0197,0.1150,-0.2497,1006.2909,-5.3924,26.5228,-43.9688,16.1043,-1.4335,-0.5353,97.5476,
53.170775,-0.0171,0.0426,0.9900,0.1611,0.1128,0.1854,1006.3000,-5.9536,27.0718,-43.6150,16.2690,-1.4456,-0.5436,97.5476,
53.271773,-0.0130,0.0414,1.0106,0.0994,0.0780,0.2363,1006.3153,-5.7950,26.3642,-43.4686,16.4421,-1.4584,-0.5716,97.6744,
53.372977,0.0057,0.0262,1.0068,-0.0085,0.0733,0.1899,1006.3580,-5.5510,27.2548,-43.2124,16.6063,-1.4686,-0.5552,97.6744,
53.473287,-0.0179,0.0335,1.0101,0.0693,0.0950,-0.0110,1006.2939,-5.5754,26.8034,-43.3832,16.7719,-1.4792,-0.5065,97.6744,
53.574611,-0.0107,0.0339,0.9939,-0.0062,0.0650,-0.0722,1006.2909,-5.4900,26.6326,-43.2734,16.9481,-1.4922,-0.4865,95.7047,
53.675342,-0.0065,0.0344,0.9925,-0.1279,0.0809,-0.2325,1006.2939,-6.3806,26.2788,-42.8830,17.1106,-1.5053,-0.4751,95.7047,
53.775200,0.0061,0.0443,0.9919,0.2758,0.1094,-0.1922,1006.2848,-5.5754,26.7180,-43.3832,17.2744,-1.5191,-0.4741,95.7047,
53.875344,-0.0064,0.0302,0.9958,0.0839,0.0378,0.0002,1006.2573,-5.9780,26.5472,-42.7854,17.4342,-1.5315,-0.4734,94.2904,
53.975788,-0.0245,0.0325,1.0010,0.0964,0.1129,0.0034,1006.3245,-6.4660,26.5472,-42.9928,17.5959,-1.5485,-0.4744,94.2904,
54.076100,-0.0146,0.0375,0.9933,-0.0279,0.0219,-0.0216,1006.2543,-6.7588,26.4496,-43.1026,17.7580,-1.5650,-0.4604,94.2904,
54.176341,0.0138,0.0351,0.9998,0.0500,0.0605,0.1309,1006.3428,-6.7588,26.4496,-43.2002,17.9269,-1.5778,-0.4647,94.8067,
54.277688,0.0059,0.0434,1.0272,-0.0322,0.0495,0.1236,1006.3093,-6.6734,26.3764,-42.7976,18.0883,-1.5903,-0.4598,94.8067,
54.377668,-0.0140,0.0329,1.0096,0.0792,0.1278,-0.1927,1006.3032,-6.6734,26.2666,-43.3954,18.2514,-1.6062,-0.4549,94.8067,
54.477802,-0.0072,0.0514,0.9989,-0.0897,0.1148,-0.1803,1006.2421,-5.9902,26.2788,-43.0660,18.4111,-1.6189,-0.4477,94.0723,
54.579303,-0.0139,0.0310,0.9952,0.0824,0.0498,-0.0361,1006.2696,-6.4660,26.6326,-43.2002,18.5761,-1.6311,-0.4451,94.0723,
54.679722,0.0087,0.0451,1.0166,0.1429,0.0585,0.1386,1006.2757,-7.3566,26.2666,-43.3100,18.7353,-1.6422,-0.4478,94.0723,
54.780153,-0.0229,0.0331,0.9879,0.1272,0.1401,-0.1719,1006.2757,-7.0516,26.5472,-42.9074,18.8942,-1.6525,-0.4343,95.0036,
54.880488,-0.0184,0.0289,0.9908,0.1475,0.1393,-0.0329,1006.2543,-6.9540,26.5228,-43.7126,19.0560,-1.6622,-0.4119,95.0036,
54.980728,-0.0324,0.0324,1.0150,-0.2319,0.0267,0.1374,1006.2635,-6.5392,26.9010,-42.8098,19.2115,-1.6715,-0.4294,95.0036,
55.081255,-0.0066,0.0422,0.9919,0.1322,0.0299,0.1382,1006.2512,-7.5762,25.9128,-43.0904,19.3673,-1.6836,-0.4466,94.1794,
55.181479,-0.0040,0.0411,1.0136,0.0311,0.0832,-0.0844,1006.2543,-7.3322,26.8034,-43.0294,19.5163,-1.6940,-0.4475,94.1794,
55.281630,-0.0425,0.0356,0.9903,-0.2243,0.0129,0.0138,1006.2970,-7.2468,26.5472,-42.9196,19.6638,-1.7038,-0.4579,94.1794,
55.381826,-0.0629,0.0324,0.9788,0.2854,0.1229,0.1066,1006.2878,-7.3566,26.3642,-43.2124,19.8088,-1.7152,-0.4703,93.4210,
55.482526,0.0144,0.0379,0.9710,0.0822,0.0650,-0.0883,1006.2512,-7.8446,26.3642,-42.8220,19.9509,-1.7264,-0.4766,93.4210,
55.582594,0.0035,0.0321,0.9890,0.0266,0.0806,0.0367,1006.2390,-7.5518,26.3764,-42.5170,20.0925,-1.7320,-0.5041,93.4210,
55.683021,-0.0003,0.0429,0.9978,0.0140,0.1099,0.0111,1006.2604,-7.7348,26.5594,-42.3218,20.2283,-1.7450,-0.5007,93.5224,
55.783301,-0.0431,0.0356,1.0390,-0.0951,0.0030,-0.2658,1006.2360,-7.8080,26.9132,-42.4438,20.3619,-1.7518,-0.5082,93.5224,
55.883704,-0.0112,0.0407,0.9840,-0.3687,0.0831,-0.0609,1006.2726,-7.5640,26.1812,-43.1148,20.4899,-1.7666,-0.5138,93.5224,
55.983954,0.0140,0.0486,0.9582,0.1195,0.1870,-0.3556,1006.2329,-7.8446,26.3642,-43.0294,20.6185,-1.7786,-0.5036,93.9874,
56.085093,-0.0217,0.0395,0.9835,-0.0237,0.0832,-0.1079,1006.2238,-7.3688,26.1812,-43.0050,20.7432,-1.7871,-0.5099,93.9874,
56.184917,-0.0561,0.0369,0.9898,0.0792,0.0698,-0.0039,1006.2115,-8.0520,26.0958,-43.2124,20.8588,-1.7994,-0.5251,93.9874,
56.285549,-0.0466,0.0408,1.0027,-0.4055,0.0415,-0.0044,1006.2543,-8.1374,26.3642,-42.9318,20.9725,-1.8153,-0.5659,93.8144,
56.386037,-0.0147,0.0441,1.0149,-0.0074,0.0947,0.2041,1006.2421,-8.1374,26.3642,-43.0294,21.0832,-1.8222,-0.5837,93.8144,
56.486657,0.0078,0.0402,1.0059,0.1118,0.1001,0.0710,1006.2329,-7.9544,26.0226,-42.4072,21.1854,-1.8398,-0.6229,93.8144,
56.586703,-0.0104,0.0594,0.9946,0.0846,0.1096,0.0182,1006.2238,-7.9422,26.2788,-43.0172,21.2909,-1.8550,-0.6304,93.5070,
56.687019,-0.0827,0.0342,1.0041,-0.4799,0.1005,-0.3743,1006.2329,-8.1496,26.0958,-42.8220,21.3804,-1.8627,-0.7341,93.5070,
56.787438,-0.0370,0.0458,0.9543,-0.0226,0.0690,-0.1593,1006.1993,-7.6616,26.0958,-43.0050,21.4674,-1.8749,-0.7167,93.5070,
56.887774,-0.0301,0.0496,0.9828,-0.1709,0.1716,-0.1246,1006.1810,-7.9544,26.1934,-42.8220,21.5535,-1.8930,-0.6926,93.9867,
56.988380,-0.0158,0.0455,0.9870,-0.2039,0.1107,-0.0719,1006.1993,-8.4424,26.0226,-42.2242,21.6371,-1.9111,-0.6593,93.9867,
57.088526,-0.0420,0.0349,0.9990,-0.4280,0.0775,-0.1218,1006.2389,-8.2350,26.2910,-42.3340,21.7165,-1.9239,-0.6767,93.9867,
57.189003,-0.0415,0.0496,1.0119,-0.2510,0.1291,0.0957,1006.2145,-8.2350,26.2788,-42.9318,21.7949,-1.9336,-0.6655,94.0567,
57.289548,-0.0209,0.0313,0.9759,-0.0199,0.1141,-0.0426,1006.2236,-8.7230,26.3764,-42.5414,21.8625,-1.9476,-0.6743,94.0567,
57.389696,-0.0429,0.0412,0.9832,-0.1234,-0.0070,-0.0822,1006.1565,-8.6254,26.2788,-42.5414,21.9289,-1.9616,-0.6948,94.0567,
57.490978,-0.0172,0.0450,0.9988,0.0215,0.0897,-0.0827,1006.1565,-8.4546,25.8274,-43.1148,21.9854,-1.9724,-0.7187,93.4072,
57.590845,-0.0203,0.0438,0.9815,0.0882,0.1304,0.0486,1006.2267,-7.6372,26.4618,-42.7244,22.0421,-1.9832,-0.7490,93.4072,
57.691453,-0.0628,0.0429,0.9531,-0.0201,0.0379,-0.0083,1006.1931,-8.8206,26.1934,-42.6390,22.0964,-1.9900,-0.7362,93.4072,
57.791640,-0.0542,0.0415,1.0094,-0.1771,0.0743,-0.0496,1006.2114,-8.4668,25.7542,-42.5048,22.1435,-1.9990,-0.7771,93.9112,
57.892055,-0.0388,0.0416,1.0001,-0.3784,0.0139,-0.1040,1006.2542,-7.9666,25.9250,-42.6024,22.1875,-2.0036,-0.7992,93.9112,
57.992113,-0.0657,0.0383,0.9734,0.0301,0.0885,-0.2286,1006.2419,-9.1012,26.4374,-43.4686,22.2177,-2.0113,-0.8224,93.9112,
58.092725,-0.0639,0.0384,0.9741,-0.1707,0.0687,-0.3034,1006.2054,-9.0280,26.0958,-42.8464,22.2511,-2.0154,-0.8447,94.0308,
58.192931,-0.0399,0.0485,1.0146,-0.3696,0.0404,-0.0894,1006.2664,-8.8206,26.1812,-43.0416,22.2719,-2.0189,-0.8897,94.0308,
58.293228,0.0069,0.0414,0.9927,0.1786,0.1325,0.0191,1006.2664,-8.4668,25.6566,-42.9074,22.2894,-2.0233,-0.9012,94.0308,
58.393263,-0.0081,0.0492,0.9847,-0.0955,0.0652,0.0608,1006.3580,-8.6498,25.9250,-42.8220,22.3036,-2.0284,-0.8570,92.7260,
58.495105,-0.0323,0.0426,0.9979,0.3483,0.0400,-0.0628,1006.2969,-8.7352,26.1080,-42.1266,22.3139,-2.0332,-0.7860,92.7260,
58.595241,-0.0375,0.0396,1.0180,-0.3898,0.0345,-0.0795,1006.3000,-8.9304,25.9982,-43.4442,22.3184,-2.0389,-0.7886,92.7260,
58.695248,-0.0262,0.0373,0.9807,-0.0287,0.0178,-0.1502,1006.2725,-8.6498,25.9250,-42.7244,22.3196,-2.0425,-0.7732,93.9556,
58.795662,-0.0168,0.0519,1.0178,0.1159,0.1168,0.1169,1006.3152,-9.0280,26.0958,-43.0416,22.3157,-2.0517,-0.7761,93.9556,
58.896018,-0.0009,0.0374,1.0023,0.0105,0.0427,-0.2081,1006.3152,-9.3086,26.2666,-43.2612,22.3102,-2.0603,-0.7928,93.9556,
58.996328,-0.0205,0.0466,0.9853,-0.0020,0.0242,-0.0896,1006.3855,-8.7474,25.8274,-43.1270,22.3082,-2.0724,-0.7753,93.7604,
59.096886,-0.0112,0.0502,1.0028,0.1072,0.1316,0.0373,1006.3794,-9.4184,25.9860,-43.5540,22.3019,-2.0883,-0.7576,93.7604,
59.196998,0.0229,0.0483,1.0358,0.1198,0.0392,-0.0262,1006.3641,-8.6132,26.4496,-43.1514,22.2993,-2.0931,-0.7526,93.7604,
59.297368,0.0175,0.0473,1.0143,0.0171,0.0353,-0.0122,1006.3641,-8.4058,26.6326,-42.9562,22.3009,-2.1046,-0.7216,92.9431,
59.397597,0.0146,0.0460,1.0051,0.2594,0.0976,-0.0306,1006.3092,-8.1496,26.0226,-42.4072,22.3035,-2.1251,-0.6857,92.9431,
59.497910,0.0055,0.0461,0.9862,0.2997,0.0578,-0.1590,1006.3397,-8.2472,25.9982,-43.2246,22.3139,-2.1377,-0.6539,92.9431,
59.597762,-0.0040,0.0554,1.0176,0.1039,0.1154,-0.0057,1006.3672,-8.8572,25.7542,-42.3218,22.3187,-2.1552,-0.7186,93.8772,
59.698377,-0.0318,0.0319,1.0055,0.0133,0.0124,-0.1080,1006.3336,-8.8328,26.0958,-42.9318,22.3316,-2.1649,-0.8687,93.8772,
59.798844,-0.0167,0.0523,1.0088,0.0758,0.1765,0.1424,1006.2848,-8.6376,26.0104,-42.6268,22.3424,-2.1828,-1.0511,93.8772,
59.899094,-0.0433,0.0496,0.9757,0.3340,0.1387,0.0424,1006.2451,-8.6620,25.7542,-42.4194,22.3619,-2.2016,-1.0107,92.5928,
59.999468,-0.0026,0.0558,0.9608,0.4043,0.0926,-0.1198,1006.2054,-8.7596,25.5712,-42.6146,22.3826,-2.2109,-0.8389,92.5928,
60.099810,0.0012,0.0570,0.9716,0.1551,0.1867,-0.0629,1006.1352,-8.3448,26.0104,-42.8220,22.3991,-2.2312,-0.9191,92.5928,
60.200299,0.0137,0.0464,0.9717,0.0858,0.0688,0.0081,1006.1138,-8.2594,25.9128,-43.0172,22.4182,-2.2417,-0.9484,92.6289,
60.300535,0.0023,0.0298,1.0149,0.1506,0.0404,-0.0062,1006.1108,-8.9548,25.6566,-42.9196,22.4409,-2.2440,-0.8153,92.6289,
60.400820,-0.0251,0.0296,1.0183,0.0966,0.1349,0.0080,1006.0314,-8.9426,25.9128,-43.3344,22.4618,-2.2513,-0.7649,92.6289,
60.501181,-0.0069,0.0437,1.0056,0.1246,0.0990,0.0714,1006.0223,-8.7352,26.0958,-42.8342,22.4800,-2.2571,-0.7879,92.3269,
60.601197,0.0271,0.0475,1.0135,-0.0363,0.0826,0.1192,1006.0070,-9.0158,26.3764,-42.3584,22.5009,-2.2626,-0.7408,92.3269,
60.701555,0.0331,0.0476,1.0045,0.3323,0.1615,0.2135,1005.9612,-8.8328,26.0958,-42.7366,22.5205,-2.2683,-0.6638,92.3269,
60.802381,0.0164,0.0464,1.0156,0.3305,0.0691,0.0633,1005.9216,-9.0524,25.7420,-42.9318,22.5390,-2.2770,-0.6895,92.4604,
60.902423,-0.0140,0.0462,0.9943,-0.0426,0.1035,-0.0770,1005.9124,-8.9426,25.9128,-43.0294,22.5606,-2.2893,-0.6816,92.4604,
61.002715,-0.0164,0.0659,1.0145,0.1191,0.1331,0.4933,1005.8483,-9.1378,25.8274,-42.8342,22.5858,-2.2861,-0.6947,92.4604,
61.102732,-0.0752,0.0442,1.0302,-0.4570,0.1932,-0.0711,1005.9033,-8.5522,25.9128,-43.1270,22.6011,-2.2946,-0.6940,93.4733,
61.203289,-0.0870,0.0514,0.9748,-0.2459,0.2065,-0.0123,1005.8758,-9.1500,25.7298,-43.3344,22.6209,-2.3055,-0.6194,93.4733,
61.303621,0.0049,0.0497,0.9668,0.1812,0.0238,-0.3604,1005.7995,-8.8694,25.4858,-42.5048,22.6440,-2.3303,-0.6169,93.4733,
61.403977,0.0123,0.0476,1.0015,0.3583,0.0213,-0.0481,1005.7903,-9.2110,26.1690,-43.7614,22.6651,-2.3376,-0.6542,93.6714,
61.504709,-0.0082,0.0465,0.9899,0.0957,-0.2093,-0.0719,1005.7659,-8.6254,26.3520,-43.1514,22.6803,-2.3377,-0.6806,93.6714,
61.605480,-0.0292,0.0477,0.9723,0.1346,-0.0779,-0.1091,1005.6713,-8.9548,25.7298,-43.6272,22.6992,-2.3554,-0.6429,93.6714,
61.705841,-0.0238,0.0401,1.0012,0.0367,0.0091,-0.3606,1005.7141,-8.7718,25.4614,-43.4076,22.7207,-2.3577,-0.6422,94.2014,
61.806056,-0.0095,0.0524,1.0035,0.0777,0.1066,0.0348,1005.6896,-9.1500,25.5590,-42.8220,22.7446,-2.3657,-0.7008,94.2014,
61.906599,-0.0264,0.0715,1.0139,-0.5146,0.1700,-0.0533,1005.6622,-8.7352,26.0226,-41.9314,22.7616,-2.3690,-0.7270,94.2014,
62.007164,0.0434,0.0692,0.9883,0.2919,0.3296,-0.0574,1005.6348,-9.2476,25.6566,-42.6268,22.7916,-2.3846,-0.4987,94.2143,
62.107365,0.0111,0.0643,1.0154,0.0995,0.2918,0.3078,1005.6592,-9.2354,25.9250,-42.5414,22.8083,-2.3971,-0.5187,94.2143,
62.207800,0.0276,0.0700,1.0268,0.4016,0.2908,0.3027,1005.6135,-9.1256,25.9982,-43.5418,22.8335,-2.4210,-0.4939,94.2143,
62.308066,-0.0330,0.0801,0.9531,-0.1482,0.2557,0.2768,1005.5616,-9.2476,25.5590,-42.8220,22.8557,-2.4581,-0.4812,94.2219,
62.408158,0.0122,0.0805,1.0064,-0.1417,0.4554,-0.0706,1005.5341,-9.2110,26.2056,-42.1510,22.8821,-2.5216,-0.4881,94.2219,
62.508500,0.0634,0.1000,1.0069,0.4119,0.4674,0.0403,1005.5097,-9.5282,25.8274,-42.7366,22.9017,-2.5876,-0.4546,94.2219,
62.609492,0.0555,0.1116,1.0000,-0.8873,0.6180,-0.2242,1005.4670,-9.2598,25.4614,-43.2246,22.9408,-3.0971,-0.2728,95.0413,
62.710008,0.0061,0.0973,0.9736,-0.4799,0.5195,-0.1449,1005.3876,-8.7474,25.9250,-42.5292,22.9660,-3.1887,-0.2591,95.0413,
62.810571,-0.0467,0.1017,0.9858,-0.6243,0.5087,-0.1914,1005.4487,-9.2232,26.0958,-42.9440,23.0015,-3.3501,-0.3669,95.0413,
62.910971,-0.0420,0.1391,1.0027,0.3686,0.4533,0.3156,1005.3602,-9.2232,26.1080,-42.5414,23.0176,-3.4867,-0.3962,96.4521,
63.011331,0.0059,0.1347,0.9833,0.1810,0.6056,0.2937,1005.3818,-9.2476,25.7298,-43.1270,23.0389,-3.6583,-0.3860,96.4521,
63.111820,0.0845,0.1282,0.9734,0.8402,0.7339,0.0986,1005.3391,-9.8210,25.8396,-42.5536,22.9707,-4.1108,-0.0269,96.4521,
63.211897,0.0297,0.1288,1.0200,0.2588,0.7833,-0.0254,1005.3024,-9.4184,26.0104,-42.5536,23.0588,-4.4943,-0.1546,98.5669,
63.312512,-0.0253,0.1651,0.9481,-0.1878,0.8048,-0.5766,1005.2750,-9.2232,26.0958,-42.6512,23.0564,-4.7876,-0.0693,98.5669,
63.412694,0.0059,0.1673,0.9531,-0.6520,0.5157,-0.2538,1005.2109,-9.4062,26.3520,-43.0660,23.0633,-5.0367,-0.0292,98.5669,
63.513004,-0.0394,0.1609,1.0520,0.1291,0.8556,-0.2362,1005.1529,-9.5282,25.8152,-43.5418,23.0714,-5.3552,0.0080,99.9523,
63.613518,-0.0152,0.1830,1.1137,-0.2853,0.8623,-0.0240,1005.1529,-9.1378,25.8274,-43.1392,23.1638,-5.6722,-0.1443,99.9523,
63.714064,0.0440,0.1715,0.9214,0.0672,0.5390,-0.2853,1005.0674,-9.4550,25.4736,-43.0294,23.1161,-6.1183,-0.0131,99.9523,
63.814348,-0.1249,0.1807,0.9582,0.3127,0.9646,-0.2732,1005.0797,-8.8572,25.7298,-43.1270,23.0691,-6.5404,0.1469,100.4290,
63.914332,0.0320,0.2124,0.9835,0.2954,0.3452,0.4760,1005.0674,-9.7112,26.0958,-43.0660,23.1790,-6.8044,0.0450,100.4290,
64.014484,-0.1010,0.1723,1.0830,-0.7249,0.5548,1.0290,1005.0949,-10.1138,25.9250,-42.5658,23.1062,-8.2328,0.1436,100.4290,
64.114961,0.0351,0.2065,1.0771,0.2560,0.1323,0.0380,1004.9667,-9.0524,25.6444,-43.2246,23.1506,-8.3518,0.0984,100.6580,
64.215124,-0.1004,0.2032,1.0753,0.0294,0.3890,-0.6311,1004.9545,-9.1500,25.7298,-43.1270,23.1098,-8.4212,0.0553,100.6580,
64.315531,-0.0804,0.2467,0.9306,-0.0660,0.7051,-0.3500,1004.9820,-9.9064,26.0104,-42.5658,23.0754,-8.5848,0.0628,100.6580,
64.415776,-0.0568,0.2346,1.0350,-0.5337,0.7728,0.2463,1004.9820,-9.7356,25.5468,-43.4442,23.1095,-8.6593,-0.0310,100.7489,
64.516105,0.0067,0.2830,0.9177,0.1499,0.3667,0.4183,1004.9881,-8.7352,26.1080,-42.5292,25.0018,-9.9278,-2.1717,100.7489,
64.616544,0.0289,0.2323,1.0189,0.4291,0.2780,0.4434,1004.9973,-9.6746,25.1198,-42.8098,24.5084,-10.0683,-1.8271,100.7489,
64.716578,-0.0623,0.2178,1.0041,0.7420,0.3627,-0.0457,1004.9973,-9.4428,25.5590,-43.1270,24.3724,-10.1523,-1.7430,100.7807,
64.817180,0.0921,0.2560,0.9938,0.6800,0.7995,-0.1261,1004.9973,-9.6380,25.5590,-42.7366,24.0030,-10.4042,-1.4958,100.7807,
64.917275,-0.0131,0.2309,0.9426,0.1037,0.4805,-0.2420,1004.9973,-9.9064,26.0958,-42.6634,23.5955,-10.7056,-1.2417,100.7807,
65.017785,0.0378,0.2646,1.1413,0.5060,0.3532,0.5476,1004.7896,-11.4558,26.2300,-44.5178,23.5920,-10.7358,-1.1567,100.7439,
65.118005,-0.0422,0.2279,1.0552,0.4358,0.1569,-1.2346,1004.7712,-8.5034,25.0954,-44.0908,23.5456,-10.7731,-1.1494,100.7439,
65.218058,0.0131,0.2248,0.9923,-0.0245,0.6626,0.3313,1004.7987,-8.9060,24.8392,-43.4808,21.4440,-11.4074,0.7866,100.7439,
65.318542,-0.0046,0.2230,1.0503,0.2691,0.5216,-0.1874,1004.8567,-9.3818,24.9612,-41.9924,21.3884,-11.4395,0.7975,100.7420,
65.418982,-0.0445,0.2654,0.7764,-0.0270,0.3411,0.4876,1004.8567,-8.8938,24.9490,-42.7854,21.5584,-11.6387,0.7241,100.7420,
65.519057,0.0328,0.2329,0.8284,0.0924,0.1474,1.0542,1004.7865,-9.4672,25.2906,-42.8098,22.1667,-12.2093,0.2547,100.7420,
65.619570,0.0072,0.2759,1.0803,1.2001,0.4363,1.4294,1004.6248,-9.1012,24.8636,-42.1754,22.4115,-12.4874,-0.0681,100.7455,
65.719823,0.0886,0.1902,1.0470,0.7249,0.0657,1.3002,1004.6370,-9.1866,24.9490,-42.5902,22.5384,-12.5417,-0.2459,100.7455,
65.820184,0.0232,0.2349,1.1301,-0.4930,0.2101,1.2383,1004.7621,-9.0768,25.2052,-43.0050,22.4829,-12.5519,-0.2879,100.7455,
65.920592,-0.1170,0.2354,1.0431,-0.0137,0.1553,-0.5738,1004.6827,-9.8698,25.0466,-42.0046,22.6022,-12.6285,-0.4193,100.7555,
66.020834,-0.0541,0.2848,0.9424,-0.3969,0.5420,-0.1462,1004.8018,-10.2114,25.7420,-42.4560,22.6111,-12.6828,-0.4305,100.7555,
66.120998,-0.0953,0.2293,0.9049,-0.0301,0.0452,-0.3230,1004.6431,-10.1382,25.4614,-43.0416,22.6115,-12.7159,-0.3608,100.7555,
66.221227,0.0180,0.2640,1.1309,0.1884,0.5753,0.6192,1004.7957,-9.0646,25.4980,-41.6020,22.6220,-12.7571,-0.4011,100.7400,
66.321536,0.0297,0.2671,1.0097,0.7516,0.5310,-0.7155,1004.6827,-9.2598,25.3882,-42.4072,22.6007,-12.8802,-0.3022,100.7400,
66.421741,-0.0024,0.2644,1.1330,0.4223,0.4118,1.0598,1004.7163,-9.9552,25.2052,-42.7244,22.5826,-12.9101,-0.3354,100.7400,
66.522022,-0.0506,0.2727,1.0557,-0.1198,-0.0024,1.7183,1004.6217,-9.4550,25.4004,-41.9192,22.5819,-12.9391,-0.3520,100.7627,
66.622395,-0.0439,0.2867,1.0630,-0.7217,0.1797,-0.2980,1004.7224,-9.2476,25.6444,-43.1270,22.5787,-12.9689,-0.2686,100.7627,
66.722422,-0.0495,0.2919,0.9612,-0.3912,0.5457,-0.2673,1004.6675,-9.7600,25.3028,-42.3218,22.6264,-13.0117,-0.2519,100.7627,
66.822966,0.0486,0.2209,1.0583,-0.0551,-0.1547,-0.6479,1004.6370,-9.9552,25.2052,-42.9196,22.6398,-13.0237,-0.2053,100.7253,
66.923216,-0.0066,0.2807,0.9833,-0.0910,0.1862,-0.5237,1004.6342,-9.9308,25.5712,-42.2364,22.6052,-13.0566,-0.2143,100.7253,
67.023474,0.0391,0.2095,0.9979,0.1680,0.4477,-0.8230,1004.6891,-10.0284,25.5712,-42.1388,22.5543,-13.0793,-0.1344,100.7253,
67.123929,0.0064,0.2783,0.9923,0.2049,0.3153,-0.0983,1004.7715,-10.2480,25.1320,-42.3218,22.5298,-13.0954,-0.1536,100.7594,
67.224016,0.0667,0.2688,1.0192,0.0901,0.3531,0.6256,1004.7288,-9.8576,25.2906,-42.9318,22.5304,-13.0850,-0.1823,100.7594,
67.324576,0.1577,0.2130,1.0098,0.1799,0.5025,0.5658,1004.6586,-9.7600,25.2906,-42.8220,22.5163,-13.1035,-0.2357,100.7594,
67.424664,0.0017,0.1668,0.9567,-0.2022,0.2989,0.3616,1004.6372,-9.9552,25.2052,-43.0294,21.9227,-13.5369,0.7743,100.7748,
67.525145,-0.0881,0.2727,1.0612,-0.9425,0.2185,0.8344,1004.7166,-9.9186,25.7420,-42.4438,21.8721,-13.5959,0.7719,100.7748,
67.625656,-0.0487,0.2565,1.0297,-1.0573,0.2168,0.8517,1004.6006,-10.6384,25.2174,-42.3462,22.7478,-13.8351,-0.6965,100.7748,
67.725610,0.1014,0.2331,0.9768,-0.0792,0.3622,-0.0717,1004.6952,-9.8332,25.7420,-42.8464,22.7219,-13.8492,-0.6825,100.7618,
67.826368,-0.0135,0.2691,0.9310,0.0783,0.0285,0.6285,1004.7349,-9.5526,25.4736,-42.9318,22.7087,-13.8722,-0.6087,100.7618,
67.926515,-0.0567,0.2344,1.0167,-0.5645,0.0349,0.0769,1004.6373,-9.9674,24.9368,-43.1148,22.7061,-13.8962,-0.6383,100.7618,
68.026963,-0.1159,0.3019,0.9825,-0.2852,0.1018,-0.4576,1004.6465,-10.4554,25.0344,-42.7244,22.7014,-13.9076,-0.6225,100.7989,
68.127581,0.1097,0.1951,1.0794,0.0312,0.1202,0.5300,1004.6617,-10.2480,25.2174,-42.3340,22.7141,-13.9045,-0.6283,100.7989,
68.227475,0.0816,0.2943,1.0047,0.3901,0.2418,1.2129,1004.6312,-9.9308,25.5712,-42.1388,22.6859,-13.9200,-0.5300,100.7989,
68.327687,-0.0686,0.2134,1.1043,0.2513,0.3337,-0.2707,1004.6617,-9.4428,25.7420,-42.6390,22.6716,-13.9614,-0.4579,100.7728,
68.428257,0.0143,0.2585,0.9269,0.4601,0.4026,-0.8750,1004.5641,-9.6502,25.3882,-42.8220,22.5271,-13.9834,-0.1415,100.7728,
68.528631,-0.0021,0.2906,0.9612,0.6636,0.0489,0.0471,1004.5732,-10.3456,25.2906,-42.8342,22.4369,-14.0474,0.0489,100.7728,
68.628560,-0.0224,0.2577,1.0499,0.0039,0.4429,0.2590,1004.5427,-9.9674,24.9368,-43.0172,22.4282,-14.0581,0.0588,100.7985,
68.729144,0.1481,0.2671,1.0837,0.3322,0.0437,0.3968,1004.6556,-10.3334,25.4736,-42.7488,22.3880,-14.0847,0.0851,100.7985,
68.829360,0.0963,0.2842,1.0270,0.8616,0.2629,0.6026,1004.7106,-10.6140,25.5590,-43.0660,22.3804,-14.0698,0.1175,100.7985,
68.929814,-0.0590,0.1937,1.0360,0.5287,-0.1789,0.4091,1004.6891,-10.3578,25.0344,-42.6268,22.3714,-14.0449,0.1040,100.8076,
69.029905,-0.1202,0.2704,1.0549,0.4231,-0.3278,0.3454,1004.6891,-9.9308,25.5712,-42.5414,22.3873,-14.0767,0.0247,100.8076,
69.130579,0.0696,0.3021,0.7952,1.1061,-0.3307,0.1930,1004.6586,-10.4066,25.7542,-41.9558,22.5649,-13.9565,-0.4678,100.8076,
69.230617,0.1132,0.2677,1.0411,-0.0416,-0.2836,0.7179,1004.6494,-10.6018,25.7298,-42.9684,22.5541,-13.9676,-0.4496,100.7954,
69.331032,-0.1440,0.2603,1.0290,0.4218,0.2811,-1.1817,1004.6219,-10.5408,25.2906,-42.8464,22.5895,-13.9813,-0.4996,100.7954,
69.431712,0.0305,0.2679,0.9362,0.3754,-0.2049,0.4494,1004.6769,-10.6018,25.7542,-42.0656,22.5281,-13.9844,-0.3159,100.7954,
69.532317,0.0006,0.2803,0.9396,0.1931,-0.1413,-0.4080,1004.6189,-9.7356,25.6688,-41.7362,22.8196,-14.2888,-1.6299,100.7712,
69.632382,0.0899,0.2232,1.0197,0.2742,-0.1704,0.9925,1004.6708,-9.7478,25.4736,-42.6268,22.8425,-14.2764,-1.5574,100.7712,
69.732789,-0.0185,0.2904,0.9525,0.2820,-0.0751,0.8603,1004.6433,-10.5286,25.4736,-42.9562,22.8395,-14.2748,-1.5580,100.7712,
69.833234,-0.0435,0.2698,1.0469,-0.0950,-0.3031,0.5590,1004.7196,-10.0162,25.9250,-42.1632,22.8681,-14.2867,-1.5208,100.7708,
69.934294,-0.1300,0.2936,0.9413,-0.6734,0.0764,0.0951,1004.5365,-10.0650,24.9490,-42.4072,22.8504,-14.2949,-1.4822,100.7708,
70.035209,0.0443,0.2860,1.0477,-0.3295,0.1620,1.6724,1004.6860,-10.2236,25.5590,-43.0538,22.8666,-14.3060,-1.4962,100.7708,
70.135590,-0.0028,0.2622,0.9987,0.1246,-0.1650,1.2966,1004.6006,-10.6384,25.2174,-41.9436,22.8970,-14.3120,-1.4699,100.7391,
70.236371,-0.0122,0.2593,0.9843,0.9794,-0.1305,0.0073,1004.7104,-9.9552,25.2052,-42.8220,22.8568,-14.2898,-1.2741,100.7391,
70.337020,0.0032,0.2749,0.8326,0.6747,0.4042,-0.6757,1004.6769,-10.5530,25.0466,-42.1266,22.8620,-14.2877,-1.2597,100.7391,
70.437577,0.0674,0.1960,1.0648,-0.3916,-0.2916,1.3507,1004.6097,-9.6746,24.9490,-42.6024,22.8333,-14.2541,-1.3184,100.7589,
70.537945,-0.0164,0.2649,1.2578,0.7020,-0.3339,1.0655,1004.6342,-10.7116,25.5712,-42.3584,22.8317,-14.1981,-1.4379,100.7589,
70.638363,-0.0270,0.2804,0.8173,0.0315,-0.3955,0.9875,1004.6372,-10.9312,25.3028,-42.5536,22.8344,-14.2128,-1.3543,100.7589,
70.738606,-0.0325,0.2648,0.9369,-0.3739,0.3896,-0.4785,1004.6281,-10.0528,25.2174,-42.5292,22.8051,-14.2377,-1.2718,100.7763,
70.839386,0.0803,0.2363,1.0868,0.1763,-0.2678,0.7099,1004.6584,-10.0650,25.0344,-42.4194,22.7843,-14.2304,-1.2868,100.7763,
70.939413,0.1126,0.2054,0.8817,0.6289,-0.0723,0.5364,1004.6279,-10.3578,24.9612,-41.8216,22.7637,-14.2244,-1.2822,100.7763,
71.039742,-0.0525,0.2707,1.1780,0.8706,-0.2367,0.1419,1004.6279,-9.9552,25.2052,-42.6268,22.7467,-14.2806,-1.2609,100.7952,
71.140118,0.0379,0.2644,1.0669,0.2114,-0.0143,0.0945,1004.6279,-10.0528,25.1320,-41.8216,22.7200,-14.2823,-1.2247,100.7952,
71.240445,-0.0122,0.3011,0.9822,0.6920,0.2558,-0.5259,1004.6279,-10.2358,25.3760,-43.0416,22.6988,-14.2807,-1.2160,100.7952,
71.341056,0.0028,0.2534,1.0924,0.4904,-0.1101,1.3852,1004.6279,-10.3456,25.2052,-42.7366,22.6774,-14.2632,-1.1873,100.7887,
71.441148,0.0636,0.3222,0.8825,0.7411,-0.1694,0.7766,1004.7103,-9.9430,25.4858,-42.1388,22.6384,-14.2795,-1.0263,100.7887,
71.541579,-0.0095,0.2419,1.1544,0.1957,0.1206,0.3785,1004.6768,-9.8576,25.2052,-42.7244,22.6242,-14.2735,-0.9983,100.7887,
71.641978,-0.0675,0.2663,1.1109,-0.4618,0.1706,1.1373,1004.6127,-10.2236,25.6444,-43.0538,22.5919,-14.2579,-0.9619,100.7718,
71.742217,-0.0069,0.2894,0.9163,0.2877,0.0226,-0.2508,1004.6676,-10.4554,25.0344,-42.6268,22.5685,-14.2849,-0.9378,100.7718,
71.842386,-0.0504,0.2291,1.0490,0.3904,0.1759,-1.0862,1004.6402,-10.2236,25.5712,-42.2486,22.5570,-14.2726,-0.7966,100.7718,
71.942563,0.0218,0.2841,0.8542,0.4490,0.2784,-0.3021,1004.6646,-10.4432,25.3028,-42.4438,22.5251,-14.2634,-0.7987,100.7641,
72.043100,0.0576,0.2216,1.0040,0.7172,-0.3697,-0.4705,1004.6951,-9.8210,25.8396,-42.4438,22.5064,-14.2488,-0.8207,100.7641,
72.143167,-0.0019,0.1770,1.0105,-0.4392,0.0687,1.0855,1004.5944,-10.2480,25.3028,-42.4316,22.4754,-14.2516,-0.8055,100.7641,
72.243471,-0.0452,0.2925,1.0181,-0.3056,0.2234,-0.1413,1004.6066,-9.9552,25.1198,-42.7244,22.4620,-14.2581,-0.7786,100.8024,
72.344370,-0.0025,0.2943,0.9786,0.0286,-0.2161,-0.0921,1004.6341,-9.7478,25.3882,-42.6268,22.4563,-14.2560,-0.7471,100.8024,
72.444285,-0.0071,0.2354,0.9485,-0.2131,0.2236,-0.8625,1004.5883,-10.1504,25.1198,-42.7244,22.4322,-14.2548,-0.6584,100.8024,
72.544675,-0.0305,0.2741,1.0042,0.6098,0.1730,0.4719,1004.6951,-10.9556,24.8514,-42.7366,22.4193,-14.2663,-0.6680,100.7917,
72.644990,0.0329,0.1936,1.1303,0.0024,0.0996,0.5216,1004.5303,-10.4432,25.1198,-42.7366,22.3993,-14.2532,-0.5183,100.7917,
72.745325,0.0038,0.2975,0.9839,-0.0382,0.4394,0.3216,1004.6005,-10.2480,25.3150,-41.8338,22.3867,-14.2405,-0.5584,100.7917,
72.845990,0.0538,0.2216,1.0142,0.1565,-0.0940,0.9975,1004.5149,-10.1382,25.4004,-42.0290,22.3850,-14.2115,-0.5229,100.8086,
72.946054,-0.1320,0.1445,1.2001,-1.3757,-0.6973,-0.4918,1004.5942,-11.1264,25.2052,-42.5536,22.3799,-14.1079,-0.6173,100.8086,
73.046425,0.1377,0.2430,0.8909,0.7346,0.4072,0.1628,1004.5942,-10.3456,25.1808,-43.8346,22.4014,-14.1833,-0.7493,100.8086,
73.147102,0.0896,0.2798,0.9743,-0.5772,0.2403,0.6744,1004.5851,-10.7238,25.3882,-42.3462,22.3468,-14.1575,-0.2052,100.7639,
73.247293,0.0795,0.2085,1.0846,-0.1310,-0.3219,-1.4398,1004.5332,-9.5648,25.3028,-42.7122,22.3350,-14.2289,-0.2348,100.7639,
73.347802,0.0906,0.2015,0.9996,-0.3100,0.1426,0.4501,1004.6034,-10.7482,25.0222,-42.7366,22.3565,-14.2454,-0.2386,100.7639,
73.447968,0.0338,0.1940,1.1006,-0.4269,0.5222,1.2435,1004.6003,-10.3212,25.5834,-41.9436,22.3175,-14.1029,0.1220,100.7850,
73.548428,-0.0260,0.2543,1.0601,-0.7275,0.0178,1.3860,1004.6278,-10.2602,24.9490,-42.2120,22.3231,-14.0421,0.0392,100.7850,
73.649075,-0.0721,0.1978,1.1694,-0.1274,0.1815,0.5109,1004.5912,-9.9552,25.3028,-42.6268,22.2823,-13.8568,0.5262,100.7850,
73.749377,-0.0197,0.3079,1.0265,-0.1695,0.2517,0.8873,1004.6949,-10.2480,25.2052,-42.5292,22.2706,-13.8878,0.5533,100.7654,
73.850038,0.0176,0.2416,0.9655,0.4344,-0.1500,0.2945,1004.6646,-9.4672,25.2174,-42.6146,22.2780,-13.9407,0.7643,100.7654,
73.950692,-0.1506,0.2318,1.0141,-0.6702,0.0289,-0.7696,1004.5791,-10.1504,25.3028,-42.3340,22.2448,-13.9539,0.6974,100.7654,
74.051131,0.1168,0.2172,0.9828,0.1897,0.3988,0.1768,1004.5791,-10.4676,24.7660,-42.5170,22.2594,-13.9943,0.3044,100.6883,
74.151510,0.0025,0.2227,1.0780,0.5419,0.1413,-0.3469,1004.5638,-10.1382,25.4004,-42.2364,22.2587,-13.9538,0.3825,100.6883,
74.252789,-0.0123,0.2715,1.0989,0.6795,0.1216,0.6435,1004.5822,-11.1264,25.2052,-42.4560,22.2562,-13.9547,0.3463,100.6883,
74.352978,0.1011,0.2385,0.9839,0.5542,-0.2155,0.2884,1004.5699,-10.2602,25.0344,-42.2242,22.2066,-13.3280,-1.5942,100.7500,
74.453569,0.0091,0.2714,0.9625,0.1087,0.3164,0.6561,1004.5516,-10.6506,24.9368,-42.7244,22.2012,-13.3913,-1.3986,100.7500,
74.553915,-0.0823,0.2022,0.9275,-0.4407,-0.0258,0.5464,1004.5791,-10.1504,25.3150,-41.9314,22.2238,-13.3707,-1.3156,100.7500,
74.654065,-0.0507,0.2553,0.9694,-0.3302,-0.1873,0.4338,1004.5150,-10.4554,25.0100,-43.3344,22.2080,-13.5161,-1.1802,100.7490,
74.755006,-0.0550,0.2035,0.9654,-0.3324,-0.1712,0.2249,1004.6401,-10.7360,25.3028,-42.2486,22.2128,-13.5234,-1.1445,100.7490,
74.855346,-0.0403,0.2342,1.0250,0.2169,-0.2362,-0.1187,1004.5698,-10.5774,24.5952,-42.4072,22.2224,-13.5211,-1.1195,100.7490,
74.955671,0.0185,0.2627,1.0214,-0.1691,-0.1608,0.0310,1004.6583,-10.4310,25.4858,-42.0412,22.1487,-14.0004,-0.4099,100.7832,
75.055637,0.0741,0.2551,0.9780,-0.1228,0.0807,-0.1194,1004.6187,-10.5164,25.6688,-41.8582,22.1444,-13.9722,-0.4797,100.7832,
75.155994,0.0387,0.2062,1.0001,0.6900,-0.2689,0.1056,1004.5912,-10.5286,25.4736,-42.7488,22.1343,-13.9461,-0.4531,100.7832,
75.256739,0.0062,0.2400,0.9805,0.2735,0.4467,0.7805,1004.5973,-9.6502,25.4736,-42.5292,22.1227,-13.9372,-0.4357,100.7878,
75.356881,-0.0255,0.2284,0.9952,-0.1371,-0.1358,0.4126,1004.5973,-10.2724,24.8758,-41.8094,22.1103,-13.9334,-0.4076,100.7878,
75.457350,-0.0849,0.1992,0.8879,-0.3389,0.2647,-0.1827,1004.5515,-10.1382,25.4004,-42.2364,22.0858,-13.9315,-0.4005,100.7878,
75.557828,0.0314,0.2032,0.9593,0.0907,-0.3059,-0.0788,1004.5485,-10.1382,25.4736,-42.5414,22.0816,-13.8456,-0.4700,100.8094,
75.657833,-0.0357,0.2300,0.9773,0.8690,-0.0938,-0.1451,1004.5118,-10.8336,25.1076,-43.0416,22.0705,-13.8283,-0.3988,100.8094,
75.758267,0.0709,0.2136,0.9834,0.1090,0.0351,-0.0413,1004.5516,-10.6506,24.9612,-41.7240,22.0417,-13.8061,-0.4353,100.8094,
75.858595,-0.0642,0.2330,1.0152,-0.5513,0.4145,0.0402,1004.5211,-10.2480,25.2174,-42.2242,22.0295,-13.7968,-0.3699,100.7786,
75.958990,-0.0136,0.1869,0.9650,0.0450,0.0267,-0.5452,1004.4845,-10.9312,25.2174,-42.2486,22.0062,-13.7953,-0.3459,100.7786,
76.059551,0.0328,0.2208,1.0316,0.5167,-0.1087,0.2366,1004.5364,-10.7360,25.3028,-42.5536,21.9958,-13.7672,-0.3144,100.7786,
76.160000,0.0440,0.2444,0.8906,0.1382,0.3319,1.0469,1004.4692,-10.2236,25.6810,-41.3458,21.9670,-13.7697,-0.3954,100.7751,
76.260350,-0.0539,0.2383,1.0691,-0.3187,-0.1905,0.0036,1004.4906,-10.4432,25.1320,-41.8338,21.9569,-13.7361,-0.3464,100.7751,
76.360681,0.0045,0.2270,1.0190,0.5683,0.5626,1.1815,1004.4937,-10.5164,25.5712,-42.3584,21.9276,-13.7438,-0.3711,100.7751,
76.460796,0.1542,0.2710,0.9931,0.0179,0.0573,0.3831,1004.4967,-9.9674,25.0344,-42.4194,21.9278,-13.7371,-0.3216,100.7916,
76.561466,0.0281,0.2522,0.8014,-0.3373,0.2409,-0.5561,1004.4692,-10.0650,25.0344,-42.3218,21.9049,-13.7336,-0.3078,100.7916,
76.662061,-0.0178,0.2423,1.1387,-0.2908,0.0366,1.0770,1004.4570,-10.4432,25.2174,-42.4316,21.8879,-13.7306,-0.2890,100.7916,
76.761855,-0.1289,0.2133,1.0966,0.3037,-0.4165,-0.5731,1004.4172,-9.8820,24.8758,-41.7972,21.8781,-13.7228,-0.2214,100.7879,
76.862531,0.0084,0.2401,0.9615,-0.2163,-0.2511,1.1511,1004.5118,-10.5408,25.1076,-43.4442,21.8736,-13.7011,-0.1608,100.7879,
76.962721,0.0621,0.2084,1.0418,-0.2385,-0.4724,1.0700,1004.4385,-10.8092,25.6566,-42.4682,21.8490,-13.6887,-0.2506,100.7879,
77.062835,-0.0841,0.1903,1.0486,-0.4167,0.0915,-0.0448,1004.4355,-10.4310,25.3760,-43.1514,21.8232,-13.6874,-0.2654,100.7811,
77.163228,-0.0544,0.1959,0.9900,-0.5690,-0.1587,-0.1873,1004.4568,-10.2236,25.5590,-43.0538,21.7946,-13.6689,-0.2814,100.7811,
77.265293,0.0721,0.2145,0.9980,-0.6246,-0.3426,0.9164,1004.4324,-10.8336,25.2052,-42.5414,21.7808,-13.6442,-0.2421,100.7811,
77.364968,-0.0515,0.2427,1.0216,-0.7093,0.1323,-0.0447,1004.5209,-10.5286,25.3760,-42.8464,21.7550,-13.6542,-0.3520,100.7869,
77.465138,-0.0227,0.2029,1.0740,0.1757,0.0252,0.0795,1004.5087,-10.3334,25.4004,-42.1388,21.7239,-13.6474,-0.4486,100.7869,
77.565647,0.0016,0.2306,1.0157,-0.2592,-0.0274,0.8259,1004.5118,-10.3700,24.8636,-41.9192,21.6896,-13.6382,-0.4878,100.7869,
77.665608,0.0489,0.2544,1.0162,0.2718,-0.0398,0.4975,1004.5728,-10.3578,25.0344,-42.6268,21.6707,-13.6260,-0.4835,100.7832,
77.766172,-0.0964,0.2098,0.9286,-1.0260,-0.2222,-0.1750,1004.5425,-10.1626,24.9612,-41.9070,21.6451,-13.6069,-0.6398,100.7832,
77.866417,-0.0756,0.2495,0.7789,0.1562,-0.2119,1.4626,1004.6340,-10.0406,25.4004,-41.9314,21.6393,-13.5867,-0.5726,100.7832,
77.966970,-0.0448,0.2501,1.0119,0.0892,0.3948,0.2455,1004.6371,-9.9674,24.9368,-43.0172,21.6091,-13.6276,-0.7057,100.7628,
78.067410,-0.0726,0.1736,1.1011,-0.1237,-0.0379,0.2230,1004.5974,-10.4188,25.5712,-42.4560,21.6122,-13.6221,-0.6468,100.7628,
78.167737,-0.0260,0.2027,0.8897,0.1990,-0.1595,0.3314,1004.6920,-10.0406,25.3882,-42.3340,21.5744,-13.6353,-0.6987,100.7628,
78.268480,0.0453,0.2341,1.0276,0.4023,0.0073,0.3566,1004.7012,-10.6506,24.9490,-42.4316,21.5677,-13.6337,-0.6390,100.7633,
78.369115,-0.0606,0.2199,1.0052,0.2099,0.1169,1.1815,1004.7531,-10.5286,25.3882,-42.3462,21.5197,-13.6354,-0.6863,100.7633,
78.469591,0.0117,0.2231,1.1203,0.8507,0.3990,0.1102,1004.8141,-10.7482,25.0344,-42.3340,21.5097,-13.6548,-0.6459,100.7633,
78.569926,0.0897,0.2504,0.9898,-0.3553,-0.1771,0.2791,1004.7653,-10.0772,24.7660,-42.3096,21.4602,-13.7738,-0.9255,100.7863,
78.670209,-0.0012,0.2546,0.8923,-0.6920,0.2508,0.6106,1004.8446,-9.5526,25.4858,-42.1266,21.4840,-13.7694,-0.1796,100.7863,
78.770934,-0.0832,0.2386,1.0204,-0.6695,-0.1040,0.4354,1004.8475,-10.3456,25.2906,-42.8342,21.4678,-13.7449,-0.2058,100.7863,
78.870990,0.0223,0.2539,0.9332,0.4435,-0.1709,0.4339,1004.9849,-10.3456,25.2906,-43.0416,21.4681,-13.7310,-0.1018,100.8057,
78.971385,0.0582,0.2018,0.9003,0.6261,-0.3069,0.5543,1004.9727,-9.6502,25.4004,-42.3218,21.4575,-14.0371,-1.4151,100.8057,
79.071353,0.0258,0.2374,1.1367,0.8484,-0.0750,0.2087,1005.0459,-10.3456,25.2906,-42.9440,21.4871,-14.0456,-1.3406,100.8057,
79.171731,0.0581,0.2181,0.9629,0.5691,-0.1363,0.1705,1005.0032,-9.9430,25.3638,-43.5296,21.4811,-13.8462,-1.1249,100.7910,
79.272179,0.0246,0.1970,1.0253,0.1554,0.0472,-0.4831,1005.1985,-10.1504,25.3028,-42.1266,21.5223,-13.7491,-0.2322,100.7910,
79.372762,0.0018,0.2094,0.9837,-0.3502,-0.3109,0.4932,1005.1436,-10.2358,25.4004,-42.0412,21.5276,-13.7401,-0.2748,100.7910,
79.472730,-0.0097,0.2057,0.9843,-0.5401,-0.1742,0.6426,1005.2870,-10.4676,24.8636,-42.2120,21.5348,-13.7453,-0.4380,100.7800,
79.573145,0.0215,0.2095,1.1950,-0.1133,-0.2646,0.6588,1005.1680,-9.8942,24.5830,-42.7976,21.5572,-13.7214,-0.4079,100.7800,
79.673427,-0.0934,0.2103,0.9738,0.2968,0.0922,0.7959,1005.3267,-10.1504,25.1198,-42.4194,21.5811,-13.6913,-0.3570,100.7800,
79.773729,-0.0284,0.3253,0.8458,0.5523,0.0371,-0.7299,1005.3085,-10.3700,24.8514,-42.8220,21.5951,-13.5906,-1.0578,100.7847,
79.874098,0.0497,0.2493,0.9689,0.2951,0.1194,-0.4343,1005.3665,-11.2240,25.1198,-42.3462,21.6079,-13.6073,-1.0805,100.7847,
79.974636,-0.0247,0.2119,0.8936,0.3282,0.4992,0.0688,1005.4001,-10.2480,25.2906,-42.8342,21.6246,-13.6022,-1.0257,100.7847,
80.075583,-0.0062,0.2899,0.9403,0.3208,-0.0273,1.2442,1005.4459,-11.5290,25.0100,-43.2612,21.6496,-13.5786,-1.0244,100.7862,
80.175984,-0.0961,0.2448,0.8820,-0.3750,-0.3235,0.3538,1005.4733,-10.1504,25.1076,-43.1270,21.6647,-13.5713,-0.9801,100.7862,
80.277141,0.0752,0.2707,0.8859,0.6451,0.2161,-0.2954,1005.5923,-10.5530,25.0344,-42.3340,21.6606,-13.5736,-0.9853,100.7776,
80.377216,0.0338,0.2257,1.0480,0.3745,-0.1433,0.3658,1005.4825,-11.0166,25.3760,-42.7610,21.6700,-13.5641,-0.9385,100.7776,
80.477729,0.0452,0.2325,1.0439,0.8782,0.0722,-0.2144,1005.6198,-10.5530,24.9612,-41.9192,21.6594,-13.5494,-0.8938,100.7776,
80.578408,0.0811,0.2797,0.8616,0.9491,0.1483,0.6622,1005.5862,-10.6262,25.3882,-42.4438,21.6614,-13.5590,-0.8464,100.7591,
80.678304,0.0830,0.2670,0.8285,0.1851,-0.1611,0.7870,1005.5586,-10.4310,25.3882,-42.7488,21.6594,-13.5544,-0.8439,100.7591,
80.778695,0.0833,0.2430,0.9575,-0.4857,-0.0919,-0.4772,1005.5952,-11.1386,24.9490,-41.9436,21.7222,-13.8628,1.2456,100.7591,
80.879011,0.0254,0.2578,0.9405,0.2272,-0.3970,0.9809,1005.6074,-10.6262,25.4736,-42.9562,21.7086,-13.8342,0.8947,100.7213,
80.979363,-0.1063,0.2117,1.1250,0.2241,0.1002,-0.6466,1005.6807,-10.1748,24.8636,-42.4072,21.6779,-13.8101,0.7848,100.7213,
81.079978,-0.0381,0.2377,1.1201,0.0168,0.1507,1.0363,1005.7448,-10.2480,25.1076,-43.2246,21.6705,-13.7873,0.8262,100.7213,
81.179798,-0.1478,0.3375,0.9499,-1.1841,0.5811,-0.3652,1005.7722,-10.0528,25.3028,-42.5292,21.9247,-14.4543,-0.3719,100.7288,
81.280528,-0.0457,0.2567,1.0218,0.5193,0.0199,0.4495,1005.7936,-10.2480,25.1198,-42.5292,21.8892,-14.3964,-0.3188,100.7288,
81.380730,-0.0897,0.2382,0.9825,0.3742,-0.1565,-0.0455,1005.7905,-10.3456,25.3028,-42.6390,21.9154,-14.3589,-0.3466,100.7288,
81.480573,0.0833,0.2748,0.8255,1.2035,0.0152,0.4268,1005.8363,-10.7360,25.3028,-42.4438,21.8995,-14.3101,-0.2540,100.7730,
81.580949,0.0736,0.2188,0.9546,0.0637,-0.0704,1.7440,1005.8241,-10.8336,25.2174,-42.0412,21.8680,-14.2534,-0.2344,100.7730,
81.681553,0.0335,0.2425,1.0572,-0.6210,-0.3299,0.3090,1005.8241,-10.1504,25.1198,-42.6268,21.8712,-14.2296,-0.2749,100.7730,
81.781802,0.0510,0.2390,1.0115,-0.0772,-0.0748,1.3095,1005.9858,-11.1264,25.1076,-43.1514,21.6988,-14.0121,0.5357,100.7933,
81.882104,-0.0385,0.2141,0.8893,-0.2211,0.0321,-1.4158,1005.9523,-11.0532,24.7538,-42.8342,21.6967,-13.9870,0.5381,100.7933,
81.982450,0.0275,0.2167,1.1652,0.9668,-0.0867,0.2188,1006.0072,-9.7600,25.1198,-42.5170,21.7966,-14.2267,-0.9496,100.7933,
82.082325,0.0007,0.1953,1.0558,0.3419,-0.2093,-0.2386,1006.0042,-10.1870,24.5952,-42.4926,21.7897,-14.1923,-1.0462,100.7763,
82.183002,-0.0423,0.2429,1.0781,0.0314,-0.3131,0.2499,1006.0896,-10.2724,24.8636,-42.4194,21.7833,-14.1643,-1.0279,100.7763,
82.283530,0.0554,0.2254,1.0321,1.0987,-0.3626,0.9749,1006.0255,-9.5770,25.0222,-42.9074,21.7811,-14.1153,-1.2473,100.7763,
82.383585,-0.0112,0.2029,1.1489,0.5531,-0.8697,-0.0207,1006.0408,-10.0284,25.5712,-42.2364,21.8013,-14.0221,-1.1402,100.7682,
82.483814,-0.0249,0.2788,1.0733,0.9818,-0.6061,-0.0632,1006.1262,-9.9308,25.6444,-42.9440,21.7911,-13.9252,-1.0360,100.7682,
82.584138,-0.1109,0.2407,1.0634,-0.0944,-0.2665,0.4503,1006.1049,-10.3456,25.1076,-43.1270,21.7622,-13.8992,-1.0737,100.7682,
82.684492,-0.0740,0.1917,1.0051,0.5960,-0.0634,0.2070,1006.1874,-10.3334,25.4858,-42.3462,21.7377,-13.8732,-1.0445,100.7709,
82.785197,-0.1332,0.2673,1.0778,0.4465,-0.6146,-1.1146,1006.1782,-10.0406,25.3882,-42.3340,21.6983,-13.8241,-1.0602,100.7709,
82.885375,-0.0644,0.2038,0.9449,0.3114,-0.4810,0.3286,1006.1965,-10.4310,25.4736,-42.7488,21.6891,-13.8161,-0.9938,100.7709,
82.985164,0.0442,0.3327,0.8125,0.3209,-0.0443,-1.8113,1006.1874,-10.2602,25.0466,-41.8216,21.6978,-13.7005,-0.2558,100.7486,
83.085763,-0.0014,0.2176,1.0295,0.6315,-0.1482,-0.3982,1006.2972,-11.2240,25.1076,-43.0538,21.6257,-13.5519,-0.8211,100.7486,
83.186229,0.0116,0.2613,1.0085,0.8753,0.1339,0.1923,1006.2789,-10.4676,24.8636,-42.1144,21.6168,-13.5517,-0.7226,100.7486,
83.286234,-0.0508,0.1561,1.2351,-0.6723,-0.1794,0.4489,1006.3033,-10.9068,25.5712,-42.3706,21.5631,-13.5440,-0.7791,100.7588,
83.386689,-0.0145,0.1931,1.0141,0.1257,-0.4286,0.1932,1006.3003,-10.4432,25.2906,-43.1392,21.5462,-13.5169,-0.7791,100.7588,
83.487302,0.0733,0.1970,1.0850,-0.8379,-0.4454,1.0765,1006.2850,-10.8214,25.4736,-42.5536,21.5038,-13.5238,-0.8170,100.7588,
83.587199,0.0276,0.2455,0.9131,-0.2215,0.2414,-0.2032,1006.3796,-10.6018,25.7420,-42.4682,21.4743,-13.5184,-0.8221,100.7484,
83.688825,0.0281,0.1619,1.0598,0.0776,-0.7906,2.2404,1006.3917,-10.3456,25.2906,-42.9440,21.5015,-13.4970,0.2375,100.7484,
83.787995,0.0014,0.2497,0.8548,-0.5688,0.0430,-1.3434,1006.3368,-10.0650,25.0344,-42.7122,21.4783,-13.4848,0.2732,100.7484,
83.887900,0.0028,0.2184,1.0477,0.1343,-0.1152,0.5261,1006.4497,-10.5286,25.3760,-43.0538,21.4076,-13.4247,-0.0767,100.7785,
83.988223,-0.0846,0.2082,0.8325,-0.5851,-0.1360,-1.7708,1006.3521,-10.8458,24.9368,-42.6390,21.3838,-13.4311,-0.0476,100.7785,
84.088656,0.1195,0.2526,1.0713,0.1440,-0.3006,0.8970,1006.4253,-10.1504,25.1076,-43.2246,21.3481,-13.4260,-0.1355,100.7785,
84.188782,-0.0360,0.2325,0.8508,0.0970,-0.4236,-1.0944,1006.4253,-10.4676,24.8514,-42.7244,21.3201,-13.4230,-0.2408,100.7550,
84.289169,-0.0593,0.1939,0.8599,0.1284,-0.1509,0.5742,1006.5046,-10.0772,24.8514,-42.6146,21.2945,-13.3987,-0.2816,100.7550,
84.389351,-0.0008,0.2291,1.0434,0.1106,-0.4421,0.0840,1006.4802,-10.6384,25.1198,-42.8342,21.2619,-13.3884,-0.3155,100.7550,
84.489282,-0.0033,0.2737,0.8932,0.1168,0.1313,0.0614,1006.5291,-9.8576,25.2906,-43.1270,21.2160,-13.3799,-0.6379,100.7376,
84.590811,0.0337,0.1938,1.0666,-0.2292,-0.2285,1.4811,1006.5229,-9.7600,25.1198,-42.5170,21.2638,-13.0086,-0.3192,100.7376,
84.690258,0.0410,0.2345,0.8385,-0.6208,0.2211,-0.7576,1006.5687,-9.8454,25.3882,-42.8342,21.2318,-12.9920,-0.3962,100.7376,
84.790612,0.0170,0.2633,0.8461,-0.2246,-0.0514,2.1911,1006.6450,-9.6746,25.0466,-42.1022,21.2222,-12.9861,-0.3987,100.7295,
84.891097,-0.0252,0.1704,1.0609,-0.3297,-0.1845,0.3292,1006.5687,-10.0528,25.1076,-43.3222,21.1933,-12.9842,-0.4314,100.7295,
84.991319,0.0451,0.2758,0.6918,0.4039,0.2998,-2.4324,1006.6816,-9.7600,25.1320,-42.2120,21.1913,-12.9829,-0.4011,100.7295,
85.091588,-0.0464,0.2470,1.0779,-1.0741,-0.1856,0.9774,1006.6359,-9.7356,25.7542,-42.3462,21.1907,-12.8732,-0.1628,100.7541,
85.191766,-0.0215,0.2304,0.9863,0.4791,-0.0063,-1.4890,1006.6603,-10.1382,25.4004,-41.9314,21.1696,-12.8453,-0.2194,100.7541,
85.291906,0.0290,0.2189,1.0764,-1.0103,0.2056,0.9034,1006.6786,-10.1382,25.3882,-42.7366,21.1294,-12.8129,-0.3124,100.7541,
85.394097,-0.0067,0.1802,1.2149,0.0524,-0.4316,2.0128,1006.7915,-9.9552,25.2174,-42.1266,21.1144,-12.7993,-0.3336,100.7518,
85.494426,-0.1376,0.1556,1.1031,0.4802,0.4574,-0.4888,1006.8159,-10.4310,25.4736,-42.4438,21.0940,-12.8074,-0.3698,100.7518,
85.595549,-0.0928,0.2431,1.0716,-0.0858,-0.5637,0.4816,1006.8281,-10.5652,24.8514,-42.7244,21.0480,-13.2084,-0.3735,100.7518,
85.696189,-0.0360,0.2004,1.3974,-0.5482,-0.1368,1.0071,1006.8312,-9.8698,24.9490,-42.3096,21.0237,-13.2265,-0.3877,100.7634,
85.796967,-0.1036,0.1811,0.8575,-0.5783,-0.4966,-1.1307,1006.8922,-10.1748,24.8514,-42.7122,21.0107,-13.1943,-0.4221,100.7634,
85.898283,0.1188,0.2796,0.8673,0.0216,0.0058,0.2243,1006.9197,-9.9918,24.5830,-43.0904,20.9885,-13.1854,-0.5937,100.7634,
85.998362,0.0130,0.1899,1.0236,0.0208,0.0246,0.0744,1006.8678,-9.8332,25.7420,-42.4438,20.9686,-13.1922,-0.6386,100.7441,
86.098753,0.0615,0.1600,0.9308,0.1383,-0.0894,-0.4083,1006.9075,-10.5286,25.4736,-42.8464,20.9494,-13.1987,-0.6805,100.7441,
86.199382,0.1500,0.1892,0.9087,0.4253,0.2274,-0.2509,1006.9258,-10.4432,25.3028,-42.3340,20.9375,-13.2370,-0.7706,100.7441,
86.299645,0.0486,0.2331,1.0176,-0.2984,-0.8746,2.0291,1006.8983,-11.0288,25.2906,-42.8586,20.9709,-13.1019,-0.2203,100.7677,
86.399897,-0.0318,0.2120,0.8663,-0.5680,-0.1513,0.4852,1007.0234,-10.3334,25.4858,-42.1388,20.9939,-13.1314,-0.0895,100.7677,
86.500253,0.0543,0.2264,0.9874,-0.2506,0.4287,0.3334,1007.0143,-10.3456,25.2052,-42.9318,21.0211,-13.1185,-0.0101,100.7677,
86.600549,-0.0421,0.2223,0.9191,0.4862,-0.4016,0.8728,1007.0510,-9.8454,25.4004,-42.1266,21.0310,-13.0869,0.0603,100.7776,
86.701159,-0.0315,0.1969,1.2618,-0.5448,-0.7578,1.1821,1007.1395,-10.4554,25.0222,-42.8342,21.0455,-12.9967,0.0868,100.7776,
86.803036,0.0034,0.1453,0.9590,-0.7123,0.1300,-0.4764,1007.2158,-10.3212,25.5712,-42.5536,21.0557,-12.9627,0.0777,100.7776,
86.903233,-0.0380,0.3213,1.0219,0.5817,0.5534,0.4393,1007.2463,-10.5408,25.1198,-42.8342,20.9458,-12.2980,-1.5842,100.7616,
87.003766,-0.0175,0.2347,0.9063,0.3020,-0.0297,1.5308,1007.2128,-10.3700,24.7660,-42.3096,20.9700,-12.3013,-1.5671,100.7616,
87.103711,0.0552,0.1880,1.2553,0.1760,-0.2379,-0.5676,1007.3013,-10.7360,25.1198,-42.8464,21.0049,-12.2842,-1.4867,100.7616,
87.204102,-0.0683,0.1618,0.9700,-1.3026,0.2066,-1.3526,1007.2402,-10.2602,25.0344,-42.3218,21.0194,-12.2804,-1.4560,100.7616,
87.304793,-0.0281,0.2449,0.8135,0.1972,0.2624,0.2168,1007.3318,-10.6262,25.4858,-42.2486,21.2296,-13.2117,0.1709,100.7616,
87.404383,0.0290,0.3125,0.9771,0.1671,0.7022,-0.4373,1007.3318,-10.4432,25.3028,-42.5414,21.1313,-12.9035,0.2035,100.7616,
87.504988,0.0620,0.1843,1.3367,-0.3051,0.0982,0.5186,1007.4081,-10.3578,25.0344,-42.3218,21.1386,-12.8758,0.1550,100.7925,
87.605626,-0.0358,0.1253,0.8276,-0.8427,0.2357,-2.4704,1007.3743,-10.3456,25.2052,-42.5292,21.1640,-12.9170,0.2501,100.7925,
87.705979,-0.0963,0.2725,0.8598,0.0969,0.7069,-0.8300,1007.4232,-10.6384,25.2052,-42.5414,21.1802,-12.9460,0.2703,100.7925,
87.806050,-0.0778,0.2954,0.9395,-0.7062,0.4832,-0.2447,1007.4995,-10.0528,25.1198,-42.7244,21.1770,-12.9343,0.5344,100.7937,
87.906271,0.0485,0.1707,1.0706,0.4690,-0.8734,2.1775,1007.5849,-9.7356,25.6444,-43.0416,21.1706,-12.9168,0.5219,100.7937,
88.007025,-0.1387,0.1770,1.1706,-0.1487,-0.4268,-0.4531,1007.5635,-10.0528,25.2174,-42.3218,21.1775,-12.9075,0.4735,100.7937,
88.107128,0.0200,0.2064,0.9413,-0.1379,0.4126,-0.6829,1007.5666,-10.5774,24.6074,-41.9070,21.1406,-12.9002,0.2294,100.7720,
88.207544,-0.0470,0.2131,0.8947,-0.4475,0.0384,-0.6035,1007.5391,-9.7600,25.3028,-42.4194,21.1667,-12.8945,0.3173,100.7720,
88.307589,0.0249,0.2426,0.8487,0.2817,0.1254,1.2067,1007.4903,-10.8336,25.2052,-42.4438,21.1598,-12.8777,0.2629,100.7720,
88.407807,0.1537,0.2285,0.9457,-0.8134,0.0857,0.9775,1007.6703,-10.4310,25.4736,-42.5536,21.1513,-12.8543,0.2287,100.7316,
88.508350,0.1057,0.1835,1.0721,0.0938,-0.5270,1.7782,1007.6215,-10.2602,24.9368,-42.8220,21.1618,-12.8363,0.2981,100.7316,
88.608736,-0.0011,0.1441,1.1406,-0.0222,-0.7898,0.8536,1007.6216,-10.4432,25.2906,-42.9440,21.1554,-12.8391,0.2540,100.7316,
88.709385,-0.0262,0.1502,1.0683,-0.3584,-0.4080,-0.3269,1007.6918,-10.0406,25.3882,-42.8342,21.1675,-12.7964,0.2459,100.7649,
88.809244,-0.0675,0.2195,0.8819,-0.7460,0.1848,-1.2137,1007.7467,-10.5652,24.8514,-42.4194,21.1590,-12.7087,0.4492,100.7649,
88.909639,-0.0840,0.3031,0.9998,-0.6307,0.2444,-0.0557,1007.7070,-10.0650,24.9490,-42.6146,21.1920,-12.9249,0.3439,100.7649,
89.009893,-0.0677,0.2603,0.9599,0.0088,-0.3586,0.6881,1007.8352,-10.5408,25.2296,-41.7362,21.1944,-12.8807,0.3679,100.7854,
89.110388,0.0077,0.2390,0.8801,-0.8578,-0.4663,2.0020,1007.7742,-10.4676,24.8514,-42.9196,21.1768,-12.8538,0.3159,100.7854,
89.210813,0.0505,0.2071,1.1909,0.1690,-0.3617,0.3416,1007.8108,-10.6628,24.8636,-41.8216,21.1874,-12.8136,0.3394,100.7854,
89.312028,-0.0192,0.1488,0.9618,0.1911,-0.5994,-0.1965,1007.8566,-9.9552,25.1198,-42.9196,21.1465,-12.6218,-1.1944,100.7964,
89.412545,-0.0372,0.1909,0.9017,-0.2703,-0.2216,-0.0635,1007.8688,-9.7722,25.1198,-42.9196,21.1506,-12.6227,-1.1334,100.7964,
89.512855,0.0702,0.2303,0.9677,-0.2136,0.2518,-1.0720,1007.8352,-10.4798,24.6928,-42.0046,21.1636,-12.6062,-0.9492,100.7964,
89.613285,-0.0223,0.2070,1.0092,0.5501,0.1036,-0.2146,1007.9359,-9.2842,25.1442,-41.8948,21.1772,-12.5875,-0.9151,100.7942,
89.713775,0.0611,0.1964,0.9020,0.4222,-0.1954,-0.5448,1008.0061,-9.9552,25.2174,-42.4194,21.1973,-12.5843,-0.8861,100.7942,
89.814053,-0.0114,0.2628,1.0955,0.7604,0.3997,0.1759,1008.0427,-9.3818,24.9368,-43.1026,21.1880,-12.6335,-0.9835,100.7942,
89.914720,0.0181,0.2131,0.9507,0.5529,-0.1276,0.6020,1008.0122,-10.1626,25.0344,-42.2242,21.2010,-12.6199,-0.9874,100.8004,
90.015419,0.0592,0.1858,1.0983,0.6401,0.7837,0.8715,1008.1312,-10.9190,25.3882,-42.6634,21.1814,-12.6259,-1.4302,100.8004,
90.115516,0.0792,0.1894,0.9903,0.6329,-0.3958,1.4463,1008.1251,-10.9922,25.7420,-42.6756,21.2138,-12.6244,-1.2580,100.8004,
90.215751,-0.0172,0.1739,1.0780,-0.2177,-0.3991,1.2552,1008.1038,-10.3090,24.2414,-42.3828,21.2835,-12.5355,-0.8675,100.7734,
90.316209,0.0277,0.2122,1.0103,0.7196,-0.0426,-0.7378,1008.0763,-10.3456,25.3028,-42.6390,21.3022,-12.5289,-0.8175,100.7734,
90.416784,0.0464,0.2297,0.8975,-0.2219,-0.3491,0.1594,1008.0732,-10.4676,24.8636,-42.0168,21.3305,-12.4389,-0.5386,100.7734,
90.516825,-0.0221,0.2237,1.1617,-0.4833,-0.7281,1.4285,1008.1190,-10.3456,25.1320,-42.3340,21.2815,-12.4867,-1.1860,100.7865,
90.617444,0.0075,0.1463,1.1220,-0.3804,0.0762,0.0392,1008.1129,-10.7360,25.1320,-42.1388,21.3105,-12.4858,-1.0920,100.7865,
90.717666,0.0039,0.1808,1.0007,-0.2351,-0.0492,2.1094,1008.1678,-10.2480,25.1320,-42.1266,21.3700,-12.2733,-0.7208,100.7865,
90.817817,-0.2549,0.2596,0.6978,-0.8887,0.0668,-1.2132,1008.1648,-10.5042,25.7542,-42.2608,21.4070,-12.1066,-0.5269,100.7202,
90.918407,-0.1053,0.2052,0.7141,1.2559,0.1932,-1.2183,1008.2533,-10.7360,25.3028,-42.0412,21.2673,-11.7941,-1.7016,100.7202,
91.018567,0.0429,0.1790,0.7782,0.8851,-0.3591,-0.4117,1008.2380,-10.5286,25.3882,-42.3462,21.2779,-11.7952,-1.6430,100.7202,
91.118751,0.0839,0.2196,1.0158,0.3463,0.0258,0.1945,1008.2930,-10.5286,25.3882,-42.4438,21.5011,-11.8232,-0.5431,100.6995,
91.218963,0.0355,0.1723,0.8015,-0.3878,0.1851,0.2926,1008.3693,-10.7604,24.8514,-42.6268,21.5000,-11.7996,-0.5346,100.6995,
91.319542,0.0416,0.2365,0.9612,0.0945,0.3194,-0.1098,1008.2869,-10.9312,25.3028,-42.5536,21.5234,-11.8729,-0.3160,100.6995,
91.419704,-0.1586,0.2105,0.7765,0.0615,0.0977,-0.9542,1008.3845,-10.3578,25.0222,-42.9318,21.5350,-11.8876,-0.1983,100.7486,
91.519751,0.0938,0.1828,1.0708,-0.6191,0.2860,-0.0206,1008.2626,-10.8336,25.2052,-42.5414,21.5899,-12.0075,0.1656,100.7486,
91.619964,0.0800,0.2073,0.9722,-0.2047,0.1408,-0.7426,1008.3450,-10.5286,25.3760,-42.9440,21.5775,-12.0454,-0.0612,100.7486,
91.720398,-0.0200,0.1219,1.0586,-0.4435,0.0109,-0.2193,1008.4457,-11.2118,25.3882,-42.3584,21.5743,-12.0394,0.0922,100.7639,
91.820479,-0.1524,0.2081,0.8599,-0.3033,0.9733,-0.4108,1008.4244,-10.2358,25.4980,-41.8460,21.4958,-12.1155,-0.4969,100.7639,
91.921071,-0.0852,0.2070,1.0822,-0.3382,-0.0221,0.7799,1008.4183,-10.3334,25.3882,-42.6390,21.4744,-12.0803,-0.5419,100.7639,
92.021208,-0.2486,0.1370,1.0979,-1.6335,-0.0541,-0.0572,1008.5220,-10.3334,25.4736,-42.5414,21.3750,-12.0501,-1.9100,100.7852,
92.121500,-0.2434,0.2598,1.0263,-0.2748,0.6328,0.1653,1008.4793,-10.7482,24.9246,-43.4320,21.4731,-12.1326,-0.9518,100.7852,
92.221685,-0.2623,0.1785,1.1084,-0.3491,-0.5097,-1.1639,1008.6044,-10.3456,25.1198,-42.4316,21.4603,-12.0251,-0.6821,100.7852,
92.322222,-0.1868,0.2195,0.7607,-0.4204,-0.1704,1.3497,1008.6197,-10.1504,25.2052,-42.9318,21.4339,-12.0456,-0.7536,100.7549,
92.422456,-0.1845,0.2084,0.8539,-1.5303,-0.1489,-0.5690,1008.6288,-10.1504,25.2906,-42.7366,21.5057,-12.2545,0.3650,100.7549,
92.522643,-0.1259,0.1939,0.8788,-0.3927,0.0450,-0.0190,1008.5951,-11.0288,25.3150,-41.9558,21.3989,-12.1366,1.1809,100.7549,
92.623184,-0.0350,0.2233,1.0762,-0.4106,-0.4563,-1.1029,1008.6226,-10.5408,25.2052,-42.5414,21.3045,-12.0682,0.8549,100.7931,
92.723643,0.0612,0.1713,1.0939,-0.8170,-0.1450,0.4445,1008.6012,-10.3456,25.2052,-43.0294,21.0610,-11.8941,-0.5951,100.7931,
92.823791,0.1161,0.1611,1.0468,-0.2650,-0.1768,-0.2172,1008.6256,-9.3940,24.7538,-43.2856,21.0316,-11.8641,-0.5293,100.7931,
92.924537,0.1084,0.1998,0.9131,0.2979,0.0889,0.6572,1008.6958,-10.7482,25.0222,-42.8342,21.1376,-11.6400,0.3516,100.7708,
93.025029,-0.0436,0.2281,1.0289,1.0610,0.1187,-0.1669,1008.7233,-10.7360,25.2052,-42.7488,21.1043,-11.6616,0.2907,100.7708,
93.125426,0.0366,0.1697,0.9702,-0.2043,-0.6720,0.6986,1008.6378,-10.6506,25.0222,-42.7366,20.8667,-11.5137,-0.4362,100.7708,
93.226396,-0.0072,0.2137,0.8063,0.3739,0.0371,0.2535,1008.7782,-10.5408,25.3028,-42.2364,20.8414,-11.5132,-0.4432,100.7496,
93.327625,-0.1268,0.1861,1.0770,-0.1161,0.2370,0.8174,1008.7324,-10.2480,25.1076,-43.1270,20.8628,-11.5362,-0.2181,100.7496,
93.428213,-0.1576,0.1450,1.1792,-1.1219,-0.3984,0.7905,1008.8759,-10.5164,25.5590,-43.0538,21.1410,-11.8253,1.5586,100.7496,
93.528264,0.0579,0.1815,0.8564,-0.2245,-0.0369,-1.1539,1008.7537,-10.1382,25.4858,-42.3340,21.1195,-11.8652,1.3783,100.7834,
93.628267,-0.0746,0.2097,1.1645,-0.8695,-0.3560,0.8137,1008.7720,-11.4192,25.1198,-42.4560,21.0490,-11.7951,0.9984,100.7834,
93.729064,0.0979,0.2090,0.8487,-0.0691,-0.1170,2.3816,1008.7537,-10.7970,25.7298,-42.8708,21.0206,-11.7996,0.8638,100.7834,
93.829169,0.0106,0.2314,0.9877,0.2954,0.4411,-0.0989,1008.8758,-9.7356,25.5590,-42.9318,20.8620,-11.3917,-0.2330,100.7829,
93.929260,-0.0551,0.2210,0.9591,0.9663,-0.0298,-0.7002,1008.9216,-10.6140,25.6566,-42.4560,20.8488,-11.3868,-0.2642,100.7829,
94.029568,0.0113,0.2632,0.9047,-0.1122,-0.0820,1.5448,1008.9307,-10.4432,25.1198,-42.7366,20.8381,-11.4149,-0.2124,100.7829,
94.129729,-0.1182,0.1561,0.8446,-1.6092,-0.2291,-1.1480,1008.8972,-10.1504,25.2052,-43.0294,20.8504,-11.3824,-0.0969,100.7819,
94.230175,-0.0317,0.1897,1.1239,-0.0905,0.0808,-0.3029,1009.0833,-10.0528,25.1198,-42.7244,20.7481,-11.3920,-0.6864,100.7819,
94.330644,-0.0739,0.2361,1.1078,-1.0437,-0.0159,-0.5534,1009.0253,-10.6384,25.2174,-42.3462,20.7098,-11.5502,-0.3115,100.7819,
94.430749,0.1476,0.2064,0.7960,-0.7116,-0.2051,1.7411,1009.0528,-9.9430,25.4858,-42.1388,20.6907,-11.5123,-0.5857,100.7702,
94.531042,-0.0254,0.1721,0.9883,0.2476,-0.1419,0.1045,1009.0010,-10.2236,25.5712,-42.2486,20.6739,-11.5168,-0.6065,100.7702,
94.631175,-0.0436,0.2050,0.9460,1.0364,0.4049,-0.1510,1009.0834,-10.3212,25.5590,-42.7488,20.6508,-11.5833,-0.5381,100.7702,
94.731545,-0.0422,0.2072,0.8979,0.7774,-0.3690,0.0427,1009.0895,-10.6384,25.2052,-42.7366,20.6398,-11.5718,-1.6960,100.7613,
94.832997,0.0842,0.2476,1.0512,0.8230,-0.4766,1.2210,1009.1505,-10.1626,25.0222,-42.8220,20.6229,-11.5719,-1.7568,100.7613,
94.933423,0.1776,0.2626,0.7441,1.2035,-0.2596,0.2472,1009.0284,-9.9308,25.6566,-42.6390,20.5502,-11.6371,-2.0076,100.7613,
95.033856,0.0773,0.2237,1.0096,0.6133,0.1754,0.4606,1009.2421,-10.7360,25.2906,-42.6512,20.4794,-11.7472,-1.6989,100.7542,
95.133977,0.1003,0.2339,1.0228,0.3935,0.0491,-0.3542,1009.0986,-10.2358,25.4736,-42.8464,20.5151,-11.4756,-1.8120,100.7542,
95.234544,-0.0972,0.2172,0.8693,-0.8530,-0.6349,-0.3643,1009.2299,-9.4428,25.6566,-42.3340,20.4986,-11.4731,-1.7521,100.7542,
95.334730,-0.0255,0.2363,0.7660,-0.0758,-0.0228,0.8223,1009.2421,-9.8454,25.3882,-42.3218,20.4837,-11.4022,-2.2988,100.7602,
95.434874,0.0737,0.2102,1.0251,-0.9124,0.3884,-0.6412,1009.2421,-10.6994,25.7420,-42.3706,20.4550,-11.3965,-2.2569,100.7602,
95.535286,-0.1083,0.1093,0.9992,0.0125,0.5277,-1.1282,1009.2267,-9.8332,25.7420,-42.5414,20.5621,-11.1286,-3.1210,100.7602,
95.635628,-0.1538,0.1697,1.0084,0.5829,-0.2582,-0.3978,1009.3275,-10.4920,25.9860,-43.6760,20.6385,-11.1202,-2.6746,100.7562,
95.735846,-0.0415,0.1932,0.9630,-0.4486,0.0827,-2.0806,1009.2695,-10.4432,25.1076,-42.9318,20.6234,-11.1017,-2.6519,100.7562,
95.836167,0.0320,0.1694,0.9781,-0.6914,-0.4648,1.2390,1009.3214,-10.1504,25.1198,-42.5292,20.7947,-11.1937,-1.4342,100.7562,
95.936828,-0.0203,0.2939,1.1243,1.5055,-0.2851,-0.4213,1009.2817,-9.7478,25.4858,-42.4316,20.8015,-11.1605,-1.2197,100.7777,
96.036828,-0.1510,0.1948,0.9959,-0.8777,-0.2192,0.2189,1009.3671,-9.7356,25.7420,-42.5414,20.7898,-11.1754,-1.1107,100.7777,
96.137301,0.0263,0.2136,1.0873,-0.1720,-0.1869,0.0934,1009.3366,-10.2114,25.9250,-42.1632,20.7782,-11.1714,-1.1219,100.7777,
96.237298,0.0322,0.1751,1.1199,0.3704,0.1723,0.5301,1009.4251,-9.8820,24.8758,-41.8948,20.7474,-11.1688,-1.2842,100.7705,
96.338204,0.0945,0.2634,0.9688,1.4488,0.0932,-0.4549,1009.3824,-9.0524,25.7542,-42.4194,20.7482,-11.2069,-1.1840,100.7705,
96.438229,-0.0259,0.1913,0.7625,0.4368,-0.0611,-1.6025,1009.4373,-10.4432,25.2906,-42.8464,20.7372,-11.2014,-1.2201,100.7705,
96.538216,-0.0930,0.1968,1.0264,0.3725,0.0874,-0.1015,1009.3856,-10.0406,25.3882,-42.5292,20.7325,-11.1948,-1.1814,100.7968,
96.638710,0.0511,0.2239,0.9545,0.2224,-0.0884,0.9078,1009.6084,-9.5648,25.2052,-42.8098,20.7123,-11.2667,-1.2936,100.7968,
96.739146,-0.0704,0.1542,1.0437,-0.2179,-0.2123,0.6011,1009.4955,-9.1622,25.4736,-42.6146,20.7157,-11.2577,-1.2824,100.7968,
96.839255,-0.1371,0.2652,0.9662,0.0017,-0.4576,0.1412,1009.6115,-10.2114,25.8274,-42.8586,20.7712,-10.8763,-1.3205,100.7779,
96.939693,-0.0334,0.1388,0.9669,-0.3947,-0.0347,0.8333,1009.4924,-9.6380,25.7542,-42.2364,20.7705,-10.8777,-1.2959,100.7779,
97.040008,0.0153,0.1809,0.9228,0.8479,0.4082,0.6407,1009.6420,-10.1626,24.9490,-42.5170,20.5695,-10.8439,-2.2604,100.7779,
97.140464,-0.1013,0.2353,0.8877,-0.9926,-0.0720,-0.4441,1009.4863,-9.9430,25.3638,-43.6394,20.5799,-10.8276,-2.1573,100.7852,
97.240846,-0.0467,0.1932,1.0076,-0.4670,-0.0063,0.3398,1009.6023,-9.9430,25.3882,-42.7366,20.7762,-10.9471,-0.6857,100.7852,
97.340965,0.1076,0.2946,0.8130,0.7897,-0.2397,1.2649,1009.5443,-10.0406,25.4980,-41.8338,20.7768,-10.9200,-0.5959,100.7852,
97.441505,0.1892,0.1860,0.8922,0.2486,-0.3576,1.5584,1009.6846,-10.2358,25.3760,-43.2368,20.7248,-10.4575,-0.1884,100.7716,
97.541668,0.0775,0.2728,1.0313,0.8181,0.5050,0.0290,1009.5808,-10.1138,25.7420,-42.5536,20.8267,-10.4780,0.0076,100.7716,
97.641770,0.0148,0.3152,0.9119,-0.6512,0.3423,0.7166,1009.6907,-9.9430,25.3882,-42.8342,20.8850,-10.5846,-0.0158,100.7716,
97.742396,-0.0258,0.2127,1.0408,0.0064,-0.2986,-0.2884,1009.6663,-10.4310,25.4736,-42.5536,20.8855,-10.5797,-0.0444,100.7093,
97.842366,0.0044,0.2067,0.9865,-0.9960,-0.0669,1.4091,1009.7822,-10.1504,25.3028,-42.1266,20.8757,-10.5947,-0.1734,100.7093,
97.942881,-0.0804,0.1907,0.9883,0.4421,0.0076,0.7678,1009.7120,-9.7722,25.0466,-42.1022,20.8199,-10.6516,-0.7220,100.7093,
